File: 00_Test_Data/EIS_Batteryname_0.0_Temperature_0.0°C_4.0C_precharge_0.0%SOC_1.csv
Time [s],Channel,Voltage [V],Current [A],Ah-Step [Ah],Ah-Step Counter [Ah],SOC [%],Ah-Step BaSyTec [Ah],Temperature [Â°C],BatteryVoltagePeakPeak,BatteryCurrentPeakPeak,Capacity [mAh],C-Rate,ReZf_5.0Hz,lmZf_5.0Hz,PhaseZ_5.0Hz,Frequency_5.0Hz,ReZf_10.0Hz,lmZf_10.0Hz,PhaseZ_10.0Hz,Frequency_10.0Hz,ReZf_15.0Hz,lmZf_15.0Hz,PhaseZ_15.0Hz,Frequency_15.0Hz,ReZf_20.0Hz,lmZf_20.0Hz,PhaseZ_20.0Hz,Frequency_20.0Hz,ReZf_25.0Hz,lmZf_25.0Hz,PhaseZ_25.0Hz,Frequency_25.0Hz,ReZf_35.0Hz,lmZf_35.0Hz,PhaseZ_35.0Hz,Frequency_35.0Hz,ReZf_55.0Hz,lmZf_55.0Hz,PhaseZ_55.0Hz,Frequency_55.0Hz,ReZf_80.0Hz,lmZf_80.0Hz,PhaseZ_80.0Hz,Frequency_80.0Hz,ReZf_120.0Hz,lmZf_120.0Hz,PhaseZ_120.0Hz,Frequency_120.0Hz,ReZf_180.0Hz,lmZf_180.0Hz,PhaseZ_180.0Hz,Frequency_180.0Hz,ReZf_270.0Hz,lmZf_270.0Hz,PhaseZ_270.0Hz,Frequency_270.0Hz,ReZf_405.0Hz,lmZf_405.0Hz,PhaseZ_405.0Hz,Frequency_405.0Hz,ReZf_605.0Hz,lmZf_605.0Hz,PhaseZ_605.0Hz,Frequency_605.0Hz,ReZf_900.0Hz,lmZf_900.0Hz,PhaseZ_900.0Hz,Frequency_900.0Hz,ReZf_1340.0Hz,lmZf_1340.0Hz,PhaseZ_1340.0Hz,Frequency_1340.0Hz,ReZf_2000.0Hz,lmZf_2000.0Hz,PhaseZ_2000.0Hz,Frequency_2000.0Hz
77900.6,3,4.0944,10.652,,0,,0.00361111,26.01,0.0088145,0.34676,2700.0,4.0,0.0337119,-0.00246422,-4.18068,5.0,0.0325647,-0.00341345,-5.98391,10.0,0.0316285,-0.00408901,-7.36648,15.0,0.0308103,-0.00456076,-8.42019,20.0,0.030127,-0.00497178,-9.37093,25.0,0.0288912,-0.00547534,-10.7312,35.0,0.0272174,-0.00618208,-12.7969,55.0,0.0254841,-0.00676124,-14.8589,80.0,0.0233086,-0.0072225,-17.2163,120.0,0.0208476,-0.00735502,-19.4328,180.0,0.018079,-0.00688986,-20.8617,270.0,0.0154979,-0.0054388,-19.338,405.0,0.0135865,-0.00323038,-13.3745,605.0,0.0126311,-0.000535918,-2.42951,900.0,0.0125492,0.00234232,10.5727,1340.0,0.0132082,0.00523532,21.6218,2000.0
77905.2,3,4.0944,10.652,,0,,0.00361111,26.01,0.0086968,0.348624,2700.0,4.0,0.0336193,-0.00238379,-4.05579,5.0,0.03257,-0.00346384,-6.07062,10.0,0.0315947,-0.00404528,-7.29627,15.0,0.0308023,-0.00456639,-8.43258,20.0,0.0301257,-0.00496632,-9.36122,25.0,0.0289038,-0.00549117,-10.7569,35.0,0.0271838,-0.00616205,-12.772,55.0,0.0254691,-0.00667237,-14.6804,80.0,0.0233528,-0.00728039,-17.3152,120.0,0.0208536,-0.00737029,-19.4649,180.0,0.0180854,-0.00687985,-20.8273,270.0,0.0154982,-0.00544588,-19.3608,405.0,0.0135836,-0.00324721,-13.4445,605.0,0.0126126,-0.000532716,-2.41856,900.0,0.012556,0.00234426,10.5756,1340.0,0.0132211,0.00524545,21.6406,2000.0
77909.7,3,4.0944,10.652,,0,,0.00361111,26.01,0.0087247,0.345828,2700.0,4.0,0.0335311,-0.00252788,-4.31133,5.0,0.0324764,-0.00340444,-5.98434,10.0,0.0316284,-0.00414849,-7.47246,15.0,0.0308475,-0.00462677,-8.53013,20.0,0.0301296,-0.00496623,-9.35986,25.0,0.0289067,-0.00547803,-10.7307,35.0,0.0271606,-0.00618157,-12.8217,55.0,0.0254764,-0.00672377,-14.7845,80.0,0.0234053,-0.00724338,-17.196,120.0,0.0208498,-0.00737776,-19.4865,180.0,0.0180965,-0.00686571,-20.7765,270.0,0.0154801,-0.00543814,-19.3563,405.0,0.0135816,-0.00321981,-13.337,605.0,0.0126177,-0.000530866,-2.40918,900.0,0.0125535,0.00235823,10.6393,1340.0,0.013208,0.0052495,21.6752,2000.0
77914.2,3,4.0944,10.652,,0,,0.00361111,26.01,0.00914929,0.345206,2700.0,4.0,0.0337489,-0.00256234,-4.34177,5.0,0.0325224,-0.00349221,-6.12886,10.0,0.0316078,-0.00414357,-7.46849,15.0,0.0308036,-0.00456571,-8.431,20.0,0.0300911,-0.00495546,-9.35165,25.0,0.0289026,-0.00549013,-10.7554,35.0,0.0271909,-0.0061924,-12.8296,55.0,0.02548,-0.00667738,-14.6849,80.0,0.0234653,-0.00723755,-17.1417,120.0,0.0208696,-0.00735713,-19.419,180.0,0.0181077,-0.00687698,-20.7959,270.0,0.0154841,-0.00544391,-19.3707,405.0,0.0135785,-0.0032445,-13.4385,605.0,0.0126094,-0.000524755,-2.38305,900.0,0.0125586,0.00235038,10.6005,1340.0,0.0132098,0.00523688,21.6253,2000.0
77918.7,3,4.0944,10.652,,0,,0.00361111,26.01,0.00871336,0.347381,2700.0,4.0,0.0325354,-0.0035413,-6.21189,5.0,0.0325964,-0.00350094,-6.13022,10.0,0.0316023,-0.00410874,-7.40769,15.0,0.030818,-0.00458122,-8.45533,20.0,0.030119,-0.00498086,-9.39016,25.0,0.0289031,-0.00547877,-10.7334,35.0,0.0271707,-0.00618981,-12.8337,55.0,0.0254893,-0.00669145,-14.7094,80.0,0.0233063,-0.00723346,-17.2425,120.0,0.0208547,-0.00735549,-19.4279,180.0,0.0181065,-0.00684768,-20.7161,270.0,0.0154895,-0.00544552,-19.3698,405.0,0.0135928,-0.00322679,-13.3542,605.0,0.0126166,-0.000517459,-2.34863,900.0,0.0125492,0.00234435,10.5816,1340.0,0.0132034,0.00525302,21.6953,2000.0
77923.2,3,4.0944,10.652,,0,,0.00361111,26.01,0.00895051,0.345206,2700.0,4.0,0.0336405,-0.00248048,-4.21707,5.0,0.0325102,-0.0034156,-5.99764,10.0,0.031637,-0.00410373,-7.39075,15.0,0.0307997,-0.00457801,-8.45442,20.0,0.0301201,-0.00492618,-9.28856,25.0,0.0289175,-0.00547601,-10.7229,35.0,0.0271762,-0.00619145,-12.8344,55.0,0.0255445,-0.00668376,-14.6628,80.0,0.0233907,-0.00722751,-17.1707,120.0,0.0208475,-0.00735704,-19.4379,180.0,0.0180978,-0.00686229,-20.7657,270.0,0.0154913,-0.00543706,-19.3399,405.0,0.0135962,-0.0032288,-13.359,605.0,0.0126146,-0.000529443,-2.40332,900.0,0.0125542,0.00235389,10.6195,1340.0,0.0132085,0.00524481,21.657,2000.0
77927.7,3,4.0944,10.652,,0,,0.00361111,26.01,0.00900456,0.346138,2700.0,4.0,0.0336428,-0.00246982,-4.19873,5.0,0.0325424,-0.00342516,-6.00839,10.0,0.0316569,-0.00411256,-7.40186,15.0,0.0308462,-0.00461587,-8.51067,20.0,0.0301221,-0.00495431,-9.34005,25.0,0.0288978,-0.00547702,-10.732,35.0,0.027187,-0.0061878,-12.8221,55.0,0.0255873,-0.00670572,-14.6854,80.0,0.0235124,-0.00720895,-17.0456,120.0,0.0208681,-0.00737825,-19.4719,180.0,0.0180767,-0.0068582,-20.7765,270.0,0.0154914,-0.00545319,-19.3927,405.0,0.0135947,-0.00324063,-13.4077,605.0,0.0126261,-0.000523681,-2.37504,900.0,0.0125625,0.00235544,10.6195,1340.0,0.0132074,0.00525085,21.6812,2000.0
77932.2,3,4.0944,10.652,,0,,0.00361111,26.01,0.00905687,0.34707,2700.0,4.0,0.0335412,-0.00240253,-4.09706,5.0,0.0324997,-0.00336329,-5.90832,10.0,0.0316092,-0.0041197,-7.42564,15.0,0.0308292,-0.00457044,-8.4327,20.0,0.0301241,-0.00490662,-9.25111,25.0,0.0288955,-0.00554367,-10.8604,35.0,0.0271776,-0.00617209,-12.795,55.0,0.0255613,-0.00676276,-14.8192,80.0,0.0233464,-0.00729233,-17.3464,120.0,0.0208668,-0.00735954,-19.4273,180.0,0.0180944,-0.0068624,-20.7695,270.0,0.0154979,-0.00545341,-19.386,405.0,0.0135993,-0.00322872,-13.3558,605.0,0.0126192,-0.000528606,-2.39866,900.0,0.0125486,0.00235434,10.6262,1340.0,0.0132062,0.00524458,21.6596,2000.0
77936.7,3,4.0944,10.652,,0,,0.00361111,26.01,0.00867936,0.348003,2700.0,4.0,0.033674,-0.00247291,-4.20008,5.0,0.0325089,-0.00341963,-6.00489,10.0,0.0316396,-0.00409615,-7.37663,15.0,0.030804,-0.0045683,-8.43561,20.0,0.0301049,-0.0049701,-9.37457,25.0,0.0289015,-0.00546116,-10.7003,35.0,0.0271809,-0.00620737,-12.8641,55.0,0.0255312,-0.00669554,-14.6948,80.0,0.0233553,-0.00716669,-17.0589,120.0,0.0208716,-0.00735302,-19.4072,180.0,0.0180966,-0.00686723,-20.7805,270.0,0.0154913,-0.00546119,-19.4193,405.0,0.0135972,-0.00322797,-13.3547,605.0,0.0126075,-0.000532833,-2.42005,900.0,0.0125631,0.00234717,10.5826,1340.0,0.0132045,0.005249,21.6786,2000.0
77941.2,3,4.0944,10.652,,0,,0.00361111,26.01,0.00886419,0.353595,2700.0,4.0,0.0336028,-0.00257609,-4.38389,5.0,0.0324996,-0.0034617,-6.07994,10.0,0.0316078,-0.00416129,-7.50007,15.0,0.0308159,-0.00455614,-8.41026,20.0,0.0301076,-0.00499312,-9.41637,25.0,0.028926,-0.00552678,-10.8169,35.0,0.0271513,-0.00619494,-12.8528,55.0,0.0255609,-0.00672939,-14.7495,80.0,0.0234286,-0.00723972,-17.1718,120.0,0.0208401,-0.00734448,-19.4135,180.0,0.0180848,-0.006878,-20.8228,270.0,0.0154992,-0.00545367,-19.3853,405.0,0.0135801,-0.00322941,-13.3767,605.0,0.012619,-0.000537105,-2.43721,900.0,0.0125521,0.00234465,10.5806,1340.0,0.0132084,0.00523751,21.6298,2000.0
77945.7,3,4.0944,10.652,,0,,0.00361111,26.01,0.00902549,0.34707,2700.0,4.0,0.0335999,-0.00254334,-4.32875,5.0,0.0325712,-0.00338106,-5.92637,10.0,0.0316121,-0.0040915,-7.37469,15.0,0.0308332,-0.00456065,-8.41383,20.0,0.0300866,-0.00494507,-9.33375,25.0,0.0288971,-0.0055228,-10.8199,35.0,0.0271509,-0.00618064,-12.8243,55.0,0.0255459,-0.00676102,-14.8241,80.0,0.0233675,-0.00725832,-17.2556,120.0,0.0208521,-0.0073538,-19.426,180.0,0.0180708,-0.00686933,-20.8135,270.0,0.0155024,-0.0054435,-19.3482,405.0,0.0135769,-0.00323399,-13.398,605.0,0.0126137,-0.000532705,-2.41829,900.0,0.0125468,0.00235727,10.6406,1340.0,0.013216,0.00524319,21.6397,2000.0
77950.2,3,4.0944,10.652,,0,,0.00361111,26.01,0.00878921,0.348624,2700.0,4.0,0.0337568,-0.00228529,-3.87295,5.0,0.0324451,-0.00336834,-5.92703,10.0,0.0316838,-0.00413102,-7.42847,15.0,0.0308493,-0.00457908,-8.44299,20.0,0.0301482,-0.00493609,-9.2984,25.0,0.0289052,-0.00550138,-10.7759,35.0,0.0271883,-0.00620506,-12.8562,55.0,0.0255835,-0.00672186,-14.7213,80.0,0.0233425,-0.0072097,-17.1641,120.0,0.0208523,-0.00736124,-19.4439,180.0,0.0180993,-0.00686859,-20.7814,270.0,0.0154997,-0.00545385,-19.3853,405.0,0.0135995,-0.00322265,-13.3314,605.0,0.0126248,-0.000535494,-2.42879,900.0,0.0125582,0.00235004,10.5993,1340.0,0.0132081,0.00524593,21.6618,2000.0
77954.8,3,4.0944,10.652,,0,,0.00361111,26.01,0.00905687,0.350178,2700.0,4.0,0.0335563,-0.00247038,-4.21045,5.0,0.0325335,-0.00339794,-5.9626,10.0,0.031637,-0.00410606,-7.39489,15.0,0.0308313,-0.00459032,-8.46829,20.0,0.0300889,-0.00489896,-9.24753,25.0,0.0289095,-0.00549997,-10.7717,35.0,0.0271733,-0.00619443,-12.8417,55.0,0.0255302,-0.00678357,-14.8801,80.0,0.0234587,-0.00727098,-17.2207,120.0,0.0208796,-0.00737453,-19.4529,180.0,0.0180982,-0.00687253,-20.7936,270.0,0.0154954,-0.00545023,-19.3784,405.0,0.0135888,-0.00321822,-13.3238,605.0,0.0126172,-0.000538913,-2.44576,900.0,0.0125511,0.0023468,10.5909,1340.0,0.0131977,0.00525109,21.6966,2000.0
77959.3,3,4.0944,10.652,,0,,0.00361111,26.01,0.00895923,0.344274,2700.0,4.0,0.0335506,-0.0025252,-4.30428,5.0,0.0326311,-0.00350681,-6.13394,10.0,0.0316509,-0.00403516,-7.26543,15.0,0.0308093,-0.00458039,-8.45619,20.0,0.0301074,-0.00496386,-9.36224,25.0,0.0289115,-0.00549483,-10.7611,35.0,0.0271559,-0.00616742,-12.7955,55.0,0.0254986,-0.00668154,-14.6834,80.0,0.0234523,-0.00725838,-17.1971,120.0,0.0208535,-0.00737433,-19.4749,180.0,0.0180842,-0.0068662,-20.7907,270.0,0.0154945,-0.00543087,-19.3158,405.0,0.0135992,-0.00322786,-13.3524,605.0,0.0126112,-0.000510111,-2.31629,900.0,0.0125654,0.00235727,10.6252,1340.0,0.0132092,0.00524641,21.6618,2000.0
77963.8,3,4.0944,10.652,,0,,0.00361111,26.01,0.00915365,0.350799,2700.0,4.0,0.0335691,-0.00250007,-4.25926,5.0,0.0325289,-0.00347432,-6.09649,10.0,0.031653,-0.00410458,-7.38857,15.0,0.0308553,-0.0045818,-8.4463,20.0,0.0300734,-0.0049376,-9.32391,25.0,0.0289028,-0.00547911,-10.7342,35.0,0.0271676,-0.00618096,-12.8173,55.0,0.0254627,-0.00674631,-14.8395,80.0,0.0234547,-0.00716224,-16.9808,120.0,0.02086,-0.00735939,-19.4328,180.0,0.0181059,-0.00686822,-20.7736,270.0,0.0154979,-0.00545008,-19.375,405.0,0.0135907,-0.00322574,-13.352,605.0,0.0126132,-0.000538194,-2.44328,900.0,0.0125586,0.00235258,10.6102,1340.0,0.0132014,0.00524882,21.6826,2000.0
77968.3,3,4.0944,10.652,,0,,0.00361111,26.01,0.00901502,0.346138,2700.0,4.0,0.033356,-0.00233249,-4.00001,5.0,0.0325257,-0.00351913,-6.17511,10.0,0.0316299,-0.00407423,-7.33981,15.0,0.0307758,-0.00455425,-8.41763,20.0,0.0301255,-0.00499468,-9.41377,25.0,0.0288845,-0.00547554,-10.734,35.0,0.0271682,-0.00620147,-12.8581,55.0,0.0254653,-0.00669224,-14.7243,80.0,0.0233757,-0.0071463,-16.9992,120.0,0.0208286,-0.0073556,-19.4506,180.0,0.0181047,-0.00686745,-20.7727,270.0,0.0155091,-0.00545136,-19.3663,405.0,0.0135966,-0.00323096,-13.3672,605.0,0.0126123,-0.000537333,-2.43955,900.0,0.0125596,0.00236069,10.6451,1340.0,0.0132116,0.00525042,21.6734,2000.0
77972.8,3,4.0944,10.652,,0,,0.00361111,26.01,0.0091615,0.344274,2700.0,4.0,0.0336607,-0.00231494,-3.9342,5.0,0.032572,-0.00341895,-5.99215,10.0,0.031651,-0.00407729,-7.34044,15.0,0.030792,-0.00456795,-8.43821,20.0,0.0300867,-0.00497877,-9.39622,25.0,0.0289369,-0.00547152,-10.7073,35.0,0.0271782,-0.00618225,-12.815,55.0,0.0254951,-0.00665501,-14.6295,80.0,0.023359,-0.00722142,-17.179,120.0,0.0208621,-0.00736373,-19.4416,180.0,0.0180842,-0.00687306,-20.8098,270.0,0.0154916,-0.00544092,-19.3522,405.0,0.0135909,-0.00322376,-13.3439,605.0,0.0126207,-0.00053566,-2.43034,900.0,0.0125483,0.00235279,10.6196,1340.0,0.0132012,0.00524767,21.6785,2000.0
77977.3,3,4.0944,10.652,,0,,0.00361111,26.01,0.00888163,0.348003,2700.0,4.0,0.0335872,-0.0023637,-4.02555,5.0,0.0325616,-0.0034468,-6.04253,10.0,0.0316116,-0.00412198,-7.42913,15.0,0.0307854,-0.00455471,-8.41589,20.0,0.0301186,-0.00494664,-9.32691,25.0,0.028876,-0.0054616,-10.7104,35.0,0.0272094,-0.00619539,-12.8272,55.0,0.0255234,-0.00670784,-14.725,80.0,0.0234068,-0.00718918,-17.0739,120.0,0.0208667,-0.00736933,-19.4513,180.0,0.0181006,-0.00686991,-20.7838,270.0,0.0154982,-0.00545486,-19.3905,405.0,0.0135856,-0.00322244,-13.3436,605.0,0.0126075,-0.000526203,-2.38999,900.0,0.0125479,0.00234722,10.5954,1340.0,0.0132047,0.00525169,21.6884,2000.0
77981.8,3,4.0944,10.652,,0,,0.00361111,26.01,0.009022,0.348003,2700.0,4.0,0.0336457,-0.00242368,-4.1202,5.0,0.0325362,-0.00345134,-6.05511,10.0,0.0315794,-0.00413613,-7.46188,15.0,0.0307866,-0.00462607,-8.54546,20.0,0.030103,-0.00498245,-9.39804,25.0,0.0289123,-0.0054952,-10.7615,35.0,0.0271711,-0.00623191,-12.9178,55.0,0.0255346,-0.00678029,-14.8708,80.0,0.0234211,-0.00720251,-17.0939,120.0,0.0208622,-0.0073729,-19.4639,180.0,0.0180913,-0.00687826,-20.8167,270.0,0.0154947,-0.00543975,-19.3447,405.0,0.0135986,-0.00323201,-13.3696,605.0,0.0126242,-0.000535453,-2.42873,900.0,0.0125508,0.00235673,10.6349,1340.0,0.0132139,0.00523465,21.6109,2000.0
77986.3,3,4.0944,10.652,,0,,0.00361111,26.01,0.00878224,0.348624,2700.0,4.0,0.0336479,-0.00237866,-4.04367,5.0,0.0325711,-0.00349122,-6.11803,10.0,0.0316006,-0.00406441,-7.32903,15.0,0.0307577,-0.00453556,-8.38844,20.0,0.0300889,-0.00499254,-9.42104,25.0,0.0288919,-0.00549925,-10.7767,35.0,0.0272086,-0.00618474,-12.8062,55.0,0.0255444,-0.00675975,-14.8223,80.0,0.023302,-0.00728743,-17.3665,120.0,0.0208615,-0.00737957,-19.4808,180.0,0.018103,-0.00686148,-20.7579,270.0,0.0154909,-0.0054502,-19.3836,405.0,0.013585,-0.00323343,-13.3881,605.0,0.0126182,-0.000529938,-2.40488,900.0,0.0125564,0.0023453,10.5799,1340.0,0.0132074,0.00524063,21.6429,2000.0
77990.9,3,4.0944,10.652,,0,,0.00361111,26.01,0.00890953,0.345517,2700.0,4.0,0.0337706,-0.00229228,-3.88316,5.0,0.032387,-0.00337641,-5.95168,10.0,0.0316136,-0.00409832,-7.38651,15.0,0.0308555,-0.00457114,-8.4269,20.0,0.0300882,-0.00492156,-9.28965,25.0,0.02891,-0.00549738,-10.7665,35.0,0.0271585,-0.00619439,-12.8484,55.0,0.0255735,-0.00674557,-14.7765,80.0,0.0233504,-0.00717216,-17.0746,120.0,0.020868,-0.007356,-19.4177,180.0,0.0180818,-0.00686342,-20.7856,270.0,0.0154916,-0.00543708,-19.3396,405.0,0.0135877,-0.00323056,-13.3741,605.0,0.012608,-0.000533771,-2.42421,900.0,0.0125479,0.00234883,10.6025,1340.0,0.0132022,0.00524409,21.6636,2000.0
77995.4,3,4.0944,10.652,,0,,0.00361111,26.01,0.00894702,0.344274,2700.0,4.0,0.0335565,-0.00242049,-4.12571,5.0,0.0325319,-0.00345315,-6.05906,10.0,0.0315816,-0.00410764,-7.41052,15.0,0.0308234,-0.00459725,-8.48302,20.0,0.0301046,-0.00499891,-9.42803,25.0,0.0289089,-0.00549762,-10.7674,35.0,0.0271695,-0.00617056,-12.7956,55.0,0.0254988,-0.0067442,-14.815,80.0,0.0233614,-0.00722231,-17.1793,120.0,0.0208613,-0.00735828,-19.429,180.0,0.0180981,-0.00687376,-20.797,270.0,0.0154962,-0.00544349,-19.3553,405.0,0.0135977,-0.00321402,-13.2987,605.0,0.0126212,-0.000525614,-2.38472,900.0,0.0125486,0.00235049,10.6092,1340.0,0.0131957,0.00524735,21.6855,2000.0
77999.9,3,4.0944,10.652,,0,,0.00361111,26.01,0.00891389,0.344585,2700.0,4.0,0.0335877,-0.00241712,-4.11617,5.0,0.0325239,-0.0034044,-5.97561,10.0,0.031589,-0.00410572,-7.40539,15.0,0.0307861,-0.00458571,-8.47216,20.0,0.0300786,-0.00493947,-9.3258,25.0,0.0289078,-0.00548495,-10.7436,35.0,0.0271876,-0.00621114,-12.8687,55.0,0.0254686,-0.00673006,-14.802,80.0,0.0233794,-0.00722565,-17.1743,120.0,0.0208557,-0.00737621,-19.4776,180.0,0.01809,-0.00688684,-20.8418,270.0,0.0155072,-0.00543352,-19.3098,405.0,0.0136204,-0.00323077,-13.344,605.0,0.0126247,-0.000519823,-2.35783,900.0,0.0125467,0.00234198,10.5732,1340.0,0.0132103,0.00524269,21.6463,2000.0
78004.4,3,4.0944,10.652,,0,,0.00361111,26.01,0.00883891,0.348313,2700.0,4.0,0.0335992,-0.00248724,-4.23371,5.0,0.0324834,-0.00340522,-5.98444,10.0,0.0316412,-0.0041107,-7.40218,15.0,0.0307906,-0.00456967,-8.4417,20.0,0.0300767,-0.00495741,-9.35966,25.0,0.0289399,-0.00550111,-10.7628,35.0,0.0272027,-0.00619671,-12.8328,55.0,0.0254819,-0.00669515,-14.7212,80.0,0.0233728,-0.00724888,-17.2309,120.0,0.0208389,-0.00734598,-19.4182,180.0,0.0180818,-0.00688201,-20.837,270.0,0.0155025,-0.00544974,-19.3686,405.0,0.0135823,-0.00322929,-13.3742,605.0,0.0126265,-0.000529864,-2.40298,900.0,0.0125632,0.00235874,10.6335,1340.0,0.0132195,0.00523928,21.6199,2000.0
78008.9,3,4.0944,10.652,,0,,0.00361111,26.01,0.00891215,0.345206,2700.0,4.0,0.0336225,-0.00251459,-4.27713,5.0,0.0325422,-0.00342682,-6.01131,10.0,0.0315614,-0.00413561,-7.46516,15.0,0.0307592,-0.00455664,-8.42647,20.0,0.030126,-0.00498512,-9.39591,25.0,0.0289248,-0.0054803,-10.7285,35.0,0.0271636,-0.00617526,-12.8077,55.0,0.0254386,-0.00672239,-14.8026,80.0,0.0234672,-0.00728528,-17.2467,120.0,0.0208618,-0.00737461,-19.4684,180.0,0.0180833,-0.00688501,-20.8438,270.0,0.0154803,-0.00544419,-19.376,405.0,0.0135917,-0.0032276,-13.3585,605.0,0.012602,-0.00053281,-2.421,900.0,0.0125593,0.00235021,10.5991,1340.0,0.0132112,0.00524534,21.6549,2000.0
78013.4,3,4.0944,10.652,,0,,0.00361111,26.01,0.00880578,0.345828,2700.0,4.0,0.0335791,-0.00247498,-4.21542,5.0,0.0325632,-0.00340577,-5.97082,10.0,0.03161,-0.00407869,-7.35233,15.0,0.0307961,-0.00461081,-8.51512,20.0,0.0300957,-0.00500058,-9.43384,25.0,0.0289088,-0.0054862,-10.7456,35.0,0.0271736,-0.00620227,-12.8573,55.0,0.0254293,-0.00676138,-14.8898,80.0,0.0233105,-0.00719749,-17.1589,120.0,0.0208596,-0.00737505,-19.4714,180.0,0.0180801,-0.00686593,-20.7943,270.0,0.0154995,-0.00544552,-19.3582,405.0,0.0135957,-0.00323348,-13.3781,605.0,0.0126147,-0.0005297,-2.40448,900.0,0.0125558,0.0023548,10.6222,1340.0,0.013205,0.00525028,21.6827,2000.0
78017.9,3,4.0944,10.652,,0,,0.00361111,26.01,0.00890168,0.345828,2700.0,4.0,0.0335645,-0.00251936,-4.29259,5.0,0.0325198,-0.0034178,-5.99971,10.0,0.0316262,-0.00413959,-7.45711,15.0,0.0308304,-0.00455368,-8.4019,20.0,0.030107,-0.00497066,-9.37494,25.0,0.0289078,-0.00546502,-10.7054,35.0,0.0271722,-0.00619752,-12.8484,55.0,0.0254817,-0.0067076,-14.7476,80.0,0.0233129,-0.00714891,-17.0482,120.0,0.0208581,-0.00736302,-19.4433,180.0,0.0180857,-0.00686181,-20.777,270.0,0.0154866,-0.00543919,-19.3523,405.0,0.0135896,-0.0032395,-13.408,605.0,0.0126157,-0.000533047,-2.41945,900.0,0.0125553,0.00235065,10.6043,1340.0,0.013206,0.00524621,21.6659,2000.0
78022.4,3,4.0944,10.652,,0,,0.00361111,26.01,0.008988,0.348313,2700.0,4.0,0.0344307,-0.00256791,-4.26533,5.0,0.0325096,-0.00345843,-6.07239,10.0,0.0316329,-0.00410404,-7.39225,15.0,0.030752,-0.00453178,-8.38306,20.0,0.0300901,-0.00494878,-9.33956,25.0,0.0289067,-0.00549208,-10.7576,35.0,0.0271994,-0.00621352,-12.868,55.0,0.0255041,-0.00671511,-14.7509,80.0,0.0234062,-0.00722534,-17.1551,120.0,0.0208571,-0.0073707,-19.4629,180.0,0.0180931,-0.00687836,-20.8151,270.0,0.0154992,-0.00543367,-19.3195,405.0,0.0135941,-0.00322788,-13.3574,605.0,0.0126229,-0.000528311,-2.39663,900.0,0.0125657,0.0023433,10.5634,1340.0,0.0132126,0.00524528,21.6526,2000.0
78026.9,3,4.0944,10.652,,0,,0.00361111,26.01,0.00889819,0.348003,2700.0,4.0,0.0335329,-0.00266408,-4.54243,5.0,0.0326172,-0.00350334,-6.1305,10.0,0.0315806,-0.00407029,-7.34414,15.0,0.0307422,-0.00460599,-8.52103,20.0,0.0300887,-0.00497927,-9.39652,25.0,0.0288859,-0.00547082,-10.7245,35.0,0.0272057,-0.00617859,-12.7952,55.0,0.0255576,-0.0067071,-14.7046,80.0,0.0233604,-0.00717284,-17.0692,120.0,0.0208654,-0.007346,-19.3954,180.0,0.0181074,-0.00685163,-20.7261,270.0,0.0155065,-0.00544447,-19.3466,405.0,0.0135955,-0.00324114,-13.4089,605.0,0.0126123,-0.000532067,-2.41566,900.0,0.0125505,0.00235014,10.6061,1340.0,0.0132032,0.00523587,21.6314,2000.0
78031.5,3,4.0944,10.652,,0,,0.00361111,26.01,0.0091676,0.349556,2700.0,4.0,0.033551,-0.00252639,-4.30625,5.0,0.0324823,-0.00344971,-6.06224,10.0,0.0316157,-0.00414473,-7.46872,15.0,0.030818,-0.0046125,-8.51221,20.0,0.0300991,-0.00496763,-9.37176,25.0,0.0289288,-0.0055382,-10.8377,35.0,0.0271761,-0.00618599,-12.8235,55.0,0.0255374,-0.00667785,-14.6543,80.0,0.0234242,-0.00721641,-17.1228,120.0,0.0208608,-0.00737947,-19.4812,180.0,0.0181023,-0.00687466,-20.7951,270.0,0.0154971,-0.00543782,-19.3356,405.0,0.0135956,-0.00323618,-13.389,605.0,0.0126106,-0.000541277,-2.45775,900.0,0.0125549,0.00234715,10.5892,1340.0,0.013204,0.00525147,21.6886,2000.0
78036,3,4.0944,10.652,,0,,0.00361111,26.01,0.00894266,0.349867,2700.0,4.0,0.0335889,-0.00246351,-4.19473,5.0,0.0325282,-0.00341324,-5.99021,10.0,0.0315823,-0.00412389,-7.43937,15.0,0.0308009,-0.00455335,-8.40922,20.0,0.0301014,-0.00497285,-9.38074,25.0,0.0289234,-0.00546554,-10.7008,35.0,0.0271852,-0.00619834,-12.8441,55.0,0.025513,-0.00666153,-14.6334,80.0,0.023386,-0.00723538,-17.1915,120.0,0.0208646,-0.00735053,-19.4072,180.0,0.0180812,-0.00687233,-20.8108,270.0,0.0154949,-0.00543697,-19.3353,405.0,0.0135964,-0.00322779,-13.3548,605.0,0.0126162,-0.000531865,-2.414,900.0,0.0125672,0.0023603,10.637,1340.0,0.0132276,0.0052515,21.6537,2000.0
78040.5,3,4.0944,10.652,,0,,0.00361111,26.01,0.00876131,0.346449,2700.0,4.0,0.0335682,-0.00248191,-4.22853,5.0,0.0325673,-0.00342714,-6.00726,10.0,0.0315715,-0.00412534,-7.44446,15.0,0.0307992,-0.00454281,-8.3905,20.0,0.0301323,-0.00498679,-9.39707,25.0,0.0289027,-0.00547466,-10.7257,35.0,0.027165,-0.00619026,-12.8371,55.0,0.0255339,-0.00672036,-14.7455,80.0,0.023436,-0.00724439,-17.1771,120.0,0.0208784,-0.00736157,-19.4223,180.0,0.0180899,-0.00687205,-20.801,270.0,0.0154873,-0.00542784,-19.3141,405.0,0.0135743,-0.00323149,-13.3905,605.0,0.0126092,-0.000529365,-2.40401,900.0,0.0125553,0.00234165,10.5647,1340.0,0.0132149,0.00524844,21.661,2000.0
78045,3,4.0944,10.652,,0,,0.00361111,26.01,0.0090002,0.348003,2700.0,4.0,0.0336218,-0.00254039,-4.32092,5.0,0.0324513,-0.0033584,-5.90853,10.0,0.0316315,-0.00412905,-7.4371,15.0,0.0307908,-0.00459635,-8.49024,20.0,0.0300876,-0.00494038,-9.32475,25.0,0.0289178,-0.00546334,-10.6986,35.0,0.0271683,-0.00621706,-12.8894,55.0,0.0255248,-0.00669647,-14.7003,80.0,0.0233948,-0.0071466,-16.9868,120.0,0.0208799,-0.00736082,-19.4192,180.0,0.0180924,-0.006883,-20.8286,270.0,0.0154835,-0.00543687,-19.3482,405.0,0.0135847,-0.00321355,-13.309,605.0,0.0126114,-0.000542005,-2.46091,900.0,0.0125587,0.00235667,10.6281,1340.0,0.0132013,0.00524476,21.6676,2000.0
78049.5,3,4.0944,10.652,,0,,0.00361111,26.01,0.00872208,0.348624,2700.0,4.0,0.0335865,-0.00252938,-4.30677,5.0,0.032474,-0.00339321,-5.96519,10.0,0.0315917,-0.0041337,-7.45466,15.0,0.0308481,-0.00456897,-8.42494,20.0,0.0300884,-0.00492408,-9.29428,25.0,0.0289149,-0.00548719,-10.7453,35.0,0.0271617,-0.00617903,-12.8162,55.0,0.0254517,-0.00677321,-14.9022,80.0,0.0233486,-0.0072475,-17.2446,120.0,0.0208611,-0.00736937,-19.4562,180.0,0.0180944,-0.00686096,-20.7655,270.0,0.0154976,-0.0054532,-19.3856,405.0,0.0135927,-0.00322964,-13.3657,605.0,0.0126121,-0.000531202,-2.41178,900.0,0.012564,0.00234981,10.5935,1340.0,0.0132076,0.00523479,21.6207,2000.0
78054,3,4.0944,10.652,,0,,0.00361111,26.01,0.00895923,0.343031,2700.0,4.0,0.0336008,-0.00255316,-4.34528,5.0,0.0325046,-0.00345096,-6.06031,10.0,0.0316405,-0.00416015,-7.49037,15.0,0.0307962,-0.00456417,-8.43019,20.0,0.0300976,-0.00498706,-9.40822,25.0,0.028921,-0.00547667,-10.723,35.0,0.0271817,-0.00619323,-12.8355,55.0,0.025519,-0.00677958,-14.878,80.0,0.023405,-0.00714528,-16.9769,120.0,0.0208648,-0.0073608,-19.4321,180.0,0.0180942,-0.00686814,-20.7856,270.0,0.0154916,-0.00543555,-19.3345,405.0,0.0135952,-0.00323264,-13.3753,605.0,0.0126129,-0.000532396,-2.41705,900.0,0.0125554,0.00235354,10.6171,1340.0,0.013205,0.00523804,21.6368,2000.0
78058.5,3,4.0944,10.652,,0,,0.00361111,26.01,0.00905513,0.344895,2700.0,4.0,0.0337101,-0.00236133,-4.00692,5.0,0.0325445,-0.00340879,-5.97948,10.0,0.031618,-0.00409346,-7.37683,15.0,0.030815,-0.00457202,-8.43941,20.0,0.0301119,-0.00496186,-9.35716,25.0,0.0288931,-0.00547283,-10.7257,35.0,0.0271694,-0.00619083,-12.8363,55.0,0.0255211,-0.00677357,-14.8642,80.0,0.0234192,-0.0071752,-17.0341,120.0,0.0208503,-0.00735975,-19.4421,180.0,0.0180869,-0.00686534,-20.7855,270.0,0.0155126,-0.00544377,-19.3373,405.0,0.0135966,-0.00322847,-13.3573,605.0,0.012612,-0.000540828,-2.45546,900.0,0.0125447,0.00235064,10.6131,1340.0,0.0132057,0.00525276,21.691,2000.0
78063,3,4.0944,10.652,,0,,0.00361111,26.01,0.00886506,0.350178,2700.0,4.0,0.033667,-0.00255086,-4.33287,5.0,0.0325243,-0.00350182,-6.14524,10.0,0.0316183,-0.00410233,-7.39257,15.0,0.0308306,-0.00460513,-8.49541,20.0,0.0300772,-0.00494745,-9.34103,25.0,0.0289262,-0.00546773,-10.7039,35.0,0.0271627,-0.00620265,-12.863,55.0,0.0255108,-0.00677814,-14.8795,80.0,0.023376,-0.00714471,-16.9954,120.0,0.0208544,-0.00738018,-19.4884,180.0,0.0180937,-0.00688011,-20.8192,270.0,0.0155039,-0.00543597,-19.3216,405.0,0.0135931,-0.00323006,-13.367,605.0,0.012611,-0.000534517,-2.42703,900.0,0.0125583,0.00235934,10.6402,1340.0,0.0132086,0.00524122,21.6434,2000.0
78067.5,3,4.0944,10.652,,0,,0.00361111,26.01,0.00906036,0.348313,2700.0,4.0,0.0335067,-0.0025357,-4.32774,5.0,0.0325203,-0.00344076,-6.03961,10.0,0.031606,-0.00408857,-7.37088,15.0,0.0308035,-0.00460331,-8.49944,20.0,0.0301175,-0.00496038,-9.3527,25.0,0.0289532,-0.00543585,-10.6333,35.0,0.0271826,-0.00617549,-12.7995,55.0,0.0254579,-0.00670822,-14.762,80.0,0.0233979,-0.0071878,-17.0769,120.0,0.0208665,-0.0073674,-19.4467,180.0,0.0180974,-0.00686368,-20.7699,270.0,0.0154921,-0.00543847,-19.3435,405.0,0.0135926,-0.00323414,-13.3837,605.0,0.0126179,-0.000530653,-2.4082,900.0,0.0125522,0.00235229,10.6141,1340.0,0.0132094,0.00523575,21.6216,2000.0
78072,3,4.0944,10.652,,0,,0.00361111,26.01,0.0091737,0.346138,2700.0,4.0,0.0339612,-0.00206747,-3.48372,5.0,0.0326106,-0.0034853,-6.10039,10.0,0.0315881,-0.00406789,-7.33812,15.0,0.0308004,-0.00451782,-8.34467,20.0,0.0300908,-0.00496711,-9.37334,25.0,0.0288539,-0.00546945,-10.7335,35.0,0.0272061,-0.00621509,-12.8681,55.0,0.0254661,-0.00676003,-14.8664,80.0,0.0234033,-0.00722782,-17.1627,120.0,0.0208487,-0.00738632,-19.5084,180.0,0.0180987,-0.00688253,-20.8207,270.0,0.0154995,-0.00545049,-19.3745,405.0,0.0136081,-0.00322652,-13.3387,605.0,0.0126089,-0.000531338,-2.41301,900.0,0.0125552,0.00235137,10.6076,1340.0,0.0132094,0.00525511,21.6942,2000.0
78076.5,3,4.0944,10.652,,0,,0.00361111,26.01,0.00881973,0.34272,2700.0,4.0,0.0336861,-0.00251017,-4.2616,5.0,0.0325779,-0.00344073,-6.02897,10.0,0.0315927,-0.00407188,-7.34418,15.0,0.0307763,-0.00453895,-8.38961,20.0,0.0300929,-0.00497687,-9.39077,25.0,0.0289009,-0.0054651,-10.7081,35.0,0.0271817,-0.00621287,-12.8748,55.0,0.0254826,-0.00676586,-14.8695,80.0,0.0233882,-0.00729128,-17.3149,120.0,0.0208519,-0.00736988,-19.4654,180.0,0.0180828,-0.00688758,-20.8514,270.0,0.0154943,-0.00543203,-19.3198,405.0,0.0135972,-0.00323744,-13.3926,605.0,0.0126133,-0.000525765,-2.3869,900.0,0.0125454,0.00235809,10.6453,1340.0,0.0132106,0.00524673,21.661,2000.0
78081,3,4.0944,10.652,,0,,0.00361111,26.01,0.00894789,0.348313,2700.0,4.0,0.0335392,-0.00253635,-4.32467,5.0,0.0324756,-0.00339319,-5.96486,10.0,0.0316441,-0.00411433,-7.40798,15.0,0.0308239,-0.00461005,-8.50615,20.0,0.0300929,-0.00495508,-9.3504,25.0,0.0289266,-0.00549524,-10.7564,35.0,0.0271801,-0.00617193,-12.7935,55.0,0.0254846,-0.00677151,-14.8802,80.0,0.0234106,-0.00718215,-17.0555,120.0,0.0208274,-0.00733912,-19.4113,180.0,0.0180888,-0.00686944,-20.7949,270.0,0.0154776,-0.00544051,-19.367,405.0,0.0135848,-0.00323736,-13.404,605.0,0.0126154,-0.000526846,-2.39141,900.0,0.0125517,0.00236349,10.664,1340.0,0.0132066,0.00524267,21.6517,2000.0
78085.5,3,4.0944,10.652,,0,,0.00361111,26.01,0.0087866,0.345828,2700.0,4.0,0.0335867,-0.00248715,-4.23511,5.0,0.0325552,-0.00341876,-5.99491,10.0,0.0316104,-0.00414393,-7.46853,15.0,0.0307831,-0.00458528,-8.47219,20.0,0.0301299,-0.00493863,-9.30864,25.0,0.0289137,-0.00550789,-10.7853,35.0,0.0271638,-0.00620812,-12.8735,55.0,0.0254987,-0.00677714,-14.8842,80.0,0.0234639,-0.00729275,-17.2656,120.0,0.0208519,-0.00735908,-19.439,180.0,0.018084,-0.00688213,-20.8351,270.0,0.0154879,-0.00544196,-19.3599,405.0,0.0135891,-0.00322273,-13.3416,605.0,0.0126181,-0.000533227,-2.41982,900.0,0.0125525,0.0023544,10.6232,1340.0,0.0132135,0.0052436,21.645,2000.0
78090.1,3,4.0944,10.652,,0,,0.00361111,26.01,0.00881363,0.343963,2700.0,4.0,0.0336877,-0.00253951,-4.31102,5.0,0.0324988,-0.00347182,-6.09773,10.0,0.0316445,-0.00412377,-7.4247,15.0,0.0308509,-0.00455827,-8.40475,20.0,0.0300942,-0.0049537,-9.34743,25.0,0.0289269,-0.00549666,-10.759,35.0,0.0271679,-0.00618494,-12.8251,55.0,0.0254866,-0.00672188,-14.7748,80.0,0.0233254,-0.00725139,-17.2694,120.0,0.0208435,-0.00737819,-19.493,180.0,0.0180865,-0.0068876,-20.8476,270.0,0.0155095,-0.00544151,-19.3334,405.0,0.0135872,-0.00322873,-13.3673,605.0,0.0126181,-0.000526461,-2.38914,900.0,0.0125623,0.00234846,10.5889,1340.0,0.0132111,0.00524613,21.6581,2000.0
78094.6,3,4.0944,10.652,,0,,0.00361111,26.01,0.00880316,0.348935,2700.0,4.0,0.0335411,-0.00254385,-4.33717,5.0,0.0325184,-0.00349274,-6.13054,10.0,0.0316235,-0.00412602,-7.43357,15.0,0.030802,-0.00459237,-8.47994,20.0,0.030072,-0.00496823,-9.38116,25.0,0.0289056,-0.00547561,-10.7265,35.0,0.0271555,-0.00619491,-12.8508,55.0,0.0254954,-0.00669312,-14.7095,80.0,0.0233372,-0.00726717,-17.2965,120.0,0.0208461,-0.00736262,-19.4527,180.0,0.0180801,-0.00688615,-20.8503,270.0,0.0154978,-0.00544302,-19.3519,405.0,0.0135888,-0.00324011,-13.4112,605.0,0.0126179,-0.000526519,-2.38945,900.0,0.0125636,0.00234155,10.5575,1340.0,0.013202,0.00523999,21.6485,2000.0
78099.1,3,4.0944,10.652,,0,,0.00361111,26.01,0.00895574,0.348003,2700.0,4.0,0.0335783,-0.00252482,-4.30009,5.0,0.0325219,-0.0033725,-5.92038,10.0,0.0316315,-0.0041157,-7.41332,15.0,0.0307499,-0.00457239,-8.45769,20.0,0.0300881,-0.00497283,-9.38476,25.0,0.0288701,-0.00550276,-10.7914,35.0,0.0271464,-0.00616079,-12.7865,55.0,0.0254524,-0.00677921,-14.9144,80.0,0.0234414,-0.00723156,-17.1447,120.0,0.020883,-0.00736359,-19.4233,180.0,0.018091,-0.0068871,-20.8414,270.0,0.0154942,-0.00545672,-19.4011,405.0,0.0135939,-0.00323406,-13.3822,605.0,0.0126142,-0.000522831,-2.37343,900.0,0.0125472,0.00235191,10.6167,1340.0,0.0132094,0.00525653,21.6995,2000.0
78103.6,3,4.0944,10.652,,0,,0.00361111,26.01,0.00906123,0.346449,2700.0,4.0,0.0336809,-0.00243495,-4.13499,5.0,0.0325202,-0.00344535,-6.04763,10.0,0.0316268,-0.0040864,-7.36223,15.0,0.0307748,-0.00457562,-8.45683,20.0,0.0300863,-0.00496278,-9.36669,25.0,0.0289077,-0.00547668,-10.7278,35.0,0.0271995,-0.00620316,-12.8472,55.0,0.0254847,-0.00671313,-14.7575,80.0,0.023379,-0.00715606,-17.0188,120.0,0.0208549,-0.00735476,-19.4259,180.0,0.0180878,-0.00686469,-20.7828,270.0,0.0154976,-0.00545026,-19.3759,405.0,0.0136031,-0.00322848,-13.3512,605.0,0.0126269,-0.000531067,-2.40835,900.0,0.012552,0.0023429,10.5729,1340.0,0.0132128,0.00524612,21.6555,2000.0
78108.1,3,4.0944,10.652,,0,,0.00361111,26.01,0.00911093,0.348003,2700.0,4.0,0.0336432,-0.00244972,-4.16463,5.0,0.0324943,-0.00339797,-5.96979,10.0,0.0315959,-0.00412467,-7.43759,15.0,0.0307935,-0.00454335,-8.393,20.0,0.0301118,-0.0049421,-9.32057,25.0,0.0288854,-0.00550091,-10.7822,35.0,0.0271737,-0.00619124,-12.8351,55.0,0.0254769,-0.00671009,-14.7555,80.0,0.0234755,-0.00722338,-17.103,120.0,0.0208579,-0.00735778,-19.4307,180.0,0.0181062,-0.00687481,-20.7914,270.0,0.0154818,-0.00543546,-19.3455,405.0,0.0136032,-0.00323099,-13.3611,605.0,0.0126308,-0.000536392,-2.43171,900.0,0.0125582,0.00233816,10.5469,1340.0,0.0132038,0.00524365,21.6596,2000.0
78112.6,3,4.0944,10.652,,0,,0.00361111,26.01,0.00903769,0.346449,2700.0,4.0,0.0336149,-0.00251068,-4.27146,5.0,0.0325097,-0.00348165,-6.11284,10.0,0.0316264,-0.00412973,-7.43951,15.0,0.0308089,-0.00455868,-8.41678,20.0,0.0300667,-0.00497658,-9.39828,25.0,0.0289447,-0.00548607,-10.7323,35.0,0.0271977,-0.00618657,-12.8148,55.0,0.0255087,-0.00668747,-14.6903,80.0,0.0234381,-0.00715049,-16.9659,120.0,0.0208612,-0.00735991,-19.4331,180.0,0.0180784,-0.00689256,-20.8699,270.0,0.0155,-0.00545262,-19.381,405.0,0.0135876,-0.00323537,-13.3934,605.0,0.0126209,-0.000526626,-2.38936,900.0,0.0125531,0.00235656,10.6322,1340.0,0.0132045,0.00525092,21.6857,2000.0
78117.1,3,4.0944,10.652,,0,,0.00361111,26.01,0.00884414,0.349245,2700.0,4.0,0.0336879,-0.0024698,-4.1931,5.0,0.0326329,-0.00338827,-5.92776,10.0,0.031624,-0.0041444,-7.46619,15.0,0.0308181,-0.00456909,-8.43323,20.0,0.0300897,-0.00493792,-9.31954,25.0,0.0289036,-0.0055009,-10.7756,35.0,0.0271651,-0.00618049,-12.8175,55.0,0.0255335,-0.00667073,-14.6415,80.0,0.0233177,-0.00720639,-17.1739,120.0,0.0208561,-0.00736303,-19.445,180.0,0.0180925,-0.00687429,-20.8045,270.0,0.0154989,-0.00545553,-19.3918,405.0,0.0135927,-0.00323169,-13.3739,605.0,0.012613,-0.00052946,-2.40371,900.0,0.0125403,0.0023664,10.6863,1340.0,0.0132117,0.00523656,21.6212,2000.0
78121.6,3,4.0944,10.652,,0,,0.00361111,26.01,0.00910919,0.346449,2700.0,4.0,0.0336092,-0.00243835,-4.14954,5.0,0.0325571,-0.00345696,-6.06103,10.0,0.0315961,-0.00413026,-7.44751,15.0,0.0308159,-0.00461052,-8.50919,20.0,0.0300844,-0.00495603,-9.35475,25.0,0.0288687,-0.00548296,-10.754,35.0,0.0271504,-0.00618476,-12.8328,55.0,0.0255407,-0.00671615,-14.7329,80.0,0.0234483,-0.00724857,-17.1779,120.0,0.020861,-0.00737175,-19.4621,180.0,0.0181255,-0.00688271,-20.793,270.0,0.0154855,-0.00543934,-19.354,405.0,0.01359,-0.00322011,-13.3302,605.0,0.0126155,-0.00052644,-2.38954,900.0,0.0125639,0.0023513,10.6001,1340.0,0.0132153,0.00524809,21.6592,2000.0
78126.1,3,3.6893,0.0,,0,,0.0,25.57,0.00910919,0.350488,2900.0,0.0,0.0336482,-0.00251805,-4.27974,5.0,0.0324802,-0.00348663,-6.12703,10.0,0.0316562,-0.00413196,-7.43653,15.0,0.0308244,-0.00458532,-8.46104,20.0,0.0300903,-0.0049608,-9.36179,25.0,0.0289274,-0.00550946,-10.7833,35.0,0.0271653,-0.00619534,-12.8472,55.0,0.0255363,-0.00676265,-14.8329,80.0,0.0234629,-0.00718552,-17.0272,120.0,0.0208356,-0.00733422,-19.3923,180.0,0.0180843,-0.00689428,-20.8684,270.0,0.015497,-0.0054497,-19.3748,405.0,0.0135949,-0.0032265,-13.3511,605.0,0.0126172,-0.000532173,-2.41521,900.0,0.0125484,0.00234998,10.6071,1340.0,0.0132199,0.00523731,21.612,2000.0