File: src/bode_form.csv
soc,freqhz,calc_ima,calc_rezohm,calc_imzohm,zohm,phasezdeg,temperaturec,cycle,zelle,calc_soc
250,201.99,1250,0.0125032,-0.00124774,0.0125653,-5.69886,22.9506,0,JT_VTC_008,10
250,201.99,1250,0.0122199,-0.0008857099,0.0122519,-4.14562,22.9031,10,JT_VTC_008,10
250,201.99,1250,0.0121622,-0.00078707,0.0121876,-3.70271,22.73688,20,JT_VTC_008,10
250,201.99,1250,0.01217643,-0.000814541,0.0122036,-3.82709,23.2683,26,JT_VTC_008,10
250,201.99,1250,0.0121003,-0.000739652,0.0121228,-3.49796,23.2841,35,JT_VTC_008,10
250,201.99,1250,0.0120402,-0.0007012059,0.0120606,-3.33306,23.1971,45,JT_VTC_008,10
250,201.99,2500,0.0125066,-0.00124953,0.01256888,-5.70547,22.9744,0,JT_VTC_008,10
250,201.99,2500,0.0122488,-0.0008862586,0.0122808,-4.138415,22.4677,10,JT_VTC_008,10
250,201.99,2500,0.01213327,-0.0007842164,0.0121586,-3.69809,22.721,20,JT_VTC_008,10
250,201.99,2500,0.012171,-0.0008138305,0.0121982,-3.82547,23.09431,26,JT_VTC_008,10
250,201.99,2500,0.012097,-0.000736743,0.0121194,-3.485186,23.3631,35,JT_VTC_008,10
250,201.99,2500,0.0120374,-0.000713766,0.0120586,-3.393413,23.2208,45,JT_VTC_008,10
250,201.99,5000,0.01249813,-0.00122698,0.0125582,-5.60695,22.8398,0,JT_VTC_008,10
250,201.99,5000,0.01223242,-0.000876787,0.0122638,-4.09979,22.7844,10,JT_VTC_008,10
250,201.99,5000,0.0121034,-0.0007772484,0.0121284,-3.67433,22.626,20,JT_VTC_008,10
250,201.99,5000,0.012157,-0.000796454,0.012183,-3.74833,23.01524,26,JT_VTC_008,10
250,201.99,5000,0.0120761,-0.0007310471,0.01209821,-3.46427,23.3552,35,JT_VTC_008,10
250,201.99,5000,0.01205623,-0.0007067429,0.0120769,-3.35487,23.205,45,JT_VTC_008,10
250,201.99,7500,0.01249759,-0.00121359,0.0125564,-5.546356,22.9506,0,JT_VTC_008,10
250,201.99,7500,0.0122293,-0.0008704818,0.0122602,-4.07146,22.6498,10,JT_VTC_008,10
250,201.99,7500,0.0121158,-0.0007600834,0.0121396,-3.58975,22.7765,20,JT_VTC_008,10
250,201.99,7500,0.0121592,-0.0007966188,0.0121853,-3.74842,23.0311,26,JT_VTC_008,10
250,201.99,7500,0.0120755,-0.000723337,0.0120971,-3.42799,23.3869,35,JT_VTC_008,10
250,201.99,7500,0.0120388,-0.000699001,0.0120591,-3.32299,23.4422,45,JT_VTC_008,10
250,201.99,10000,0.0124858,-0.0011981,0.0125431,-5.48117,22.6815,0,JT_VTC_008,10
250,201.99,10000,0.0122125,-0.0008509982,0.0122421,-3.98607,22.4123,10,JT_VTC_008,10
250,201.99,10000,0.0121012,-0.000756752,0.0121248,-3.57836,22.7448,20,JT_VTC_008,10
250,201.99,10000,0.01215908,-0.0007817564,0.0121842,-3.67871,23.09431,26,JT_VTC_008,10
250,201.99,10000,0.0120778,-0.000708443,0.0120986,-3.356921,23.4106,35,JT_VTC_008,10
250,201.99,10000,0.0120395,-0.000692722,0.0120594,-3.293032,23.2208,45,JT_VTC_008,10
375,201.99,1250,0.0123912,-0.001140577,0.0124436,-5.259098,22.73688,0,JT_VTC_008,15
375,201.99,1250,0.0121156,-0.000792429,0.0121415,-3.74213,22.6973,10,JT_VTC_008,15
375,201.99,1250,0.0119967,-0.0007129337,0.0120178,-3.40095,22.721,20,JT_VTC_008,15
375,201.99,1250,0.0121025,-0.0007565028,0.0121261,-3.57678,23.039,26,JT_VTC_008,15
375,201.99,1250,0.0119985,-0.0007020535,0.012019,-3.348653,23.2129,35,JT_VTC_008,15
375,201.99,1250,0.0119556,-0.0006747189,0.0119747,-3.23007,23.14966,45,JT_VTC_008,15
375,201.99,2500,0.0123653,-0.00112984,0.0124168,-5.22074,22.6894,0,JT_VTC_008,15
375,201.99,2500,0.0121293,-0.000792321,0.0121551,-3.73742,22.48354,10,JT_VTC_008,15
375,201.99,2500,0.012006,-0.0007134156,0.0120272,-3.40061,22.8002,20,JT_VTC_008,15
375,201.99,2500,0.0120974,-0.0007610864,0.01212127,-3.59993,23.2287,26,JT_VTC_008,15
375,201.99,2500,0.01201796,-0.000694252,0.012038,-3.30618,23.1971,35,JT_VTC_008,15
375,201.99,2500,0.0119604,-0.000686137,0.01198002,-3.283323,23.14966,45,JT_VTC_008,15
375,201.99,5000,0.0123604,-0.00112399,0.0124114,-5.195899,22.9744,0,JT_VTC_008,15
375,201.99,5000,0.0121185,-0.000781344,0.0121437,-3.68904,22.6023,10,JT_VTC_008,15
375,201.99,5000,0.01201112,-0.000702279,0.0120316,-3.34622,22.7052,20,JT_VTC_008,15
375,201.99,5000,0.0120576,-0.0007471505,0.0120807,-3.545802,23.17338,26,JT_VTC_008,15
375,201.99,5000,0.0119748,-0.0006848827,0.0119943,-3.2734,23.1971,35,JT_VTC_008,15
375,201.99,5000,0.0119813,-0.000674766,0.0120003,-3.22339,23.17338,45,JT_VTC_008,15
375,201.99,7500,0.01237059,-0.0010984,0.0124193,-5.07403,22.919,0,JT_VTC_008,15
375,201.99,7500,0.0121009,-0.000777091,0.0121258,-3.67435,22.7765,10,JT_VTC_008,15
375,201.99,7500,0.0119943,-0.000703476,0.0120149,-3.35661,22.7527,20,JT_VTC_008,15
375,201.99,7500,0.0120586,-0.0007307502,0.0120808,-3.46787,23.1971,26,JT_VTC_008,15
375,201.99,7500,0.0119922,-0.000678976,0.0120114,-3.24053,23.2287,35,JT_VTC_008,15
375,201.99,7500,0.0119416,-0.0006699689,0.0119603,-3.21116,23.1892,45,JT_VTC_008,15
375,201.99,10000,0.0123405,-0.00107373,0.0123871,-4.97272,22.8873,0,JT_VTC_008,15
375,201.99,10000,0.0120858,-0.0007707305,0.0121103,-3.648909,22.86355,10,JT_VTC_008,15
375,201.99,10000,0.0119907,-0.000683021,0.0120101,-3.26019,22.7131,20,JT_VTC_008,15
375,201.99,10000,0.0120547,-0.00072613,0.0120766,-3.44711,22.9757,26,JT_VTC_008,15
375,201.99,10000,0.0119736,-0.0006693116,0.0119923,-3.19943,23.1576,35,JT_VTC_008,15
375,201.99,10000,0.01195413,-0.000654273,0.01197202,-3.13278,23.2129,45,JT_VTC_008,15
500,201.99,1250,0.012259,-0.0010631,0.012305,-4.95629,22.81605,0,JT_VTC_008,20
500,201.99,1250,0.0120317,-0.000733263,0.012054,-3.487532,22.6894,10,JT_VTC_008,20
500,201.99,1250,0.0119067,-0.00066949,0.0119255,-3.218233,22.7131,20,JT_VTC_008,20
500,201.99,1250,0.0120042,-0.000710136,0.0120252,-3.38551,23.17338,26,JT_VTC_008,20
500,201.99,1250,0.011934,-0.0006499539,0.0119517,-3.11737,23.2366,35,JT_VTC_008,20
500,201.99,1250,0.0118903,-0.0006558551,0.0119084,-3.15716,23.3948,45,JT_VTC_008,20
500,201.99,2500,0.0122795,-0.00106017,0.0123251,-4.9345,22.7923,0,JT_VTC_008,20
500,201.99,2500,0.0120037,-0.0007338349,0.0120261,-3.49838,22.48354,10,JT_VTC_008,20
500,201.99,2500,0.01193559,-0.0006696827,0.0119544,-3.21139,22.8952,20,JT_VTC_008,20
500,201.99,2500,0.0119804,-0.0007095226,0.0120014,-3.3893,23.1655,26,JT_VTC_008,20
500,201.99,2500,0.0119143,-0.00065375,0.01193221,-3.14073,23.32361,35,JT_VTC_008,20
500,201.99,2500,0.0119006,-0.000652164,0.0119184,-3.136727,23.2841,45,JT_VTC_008,20
500,201.99,5000,0.0122677,-0.0010542,0.0123129,-4.911555,22.7765,0,JT_VTC_008,20
500,201.99,5000,0.0120121,-0.0007322349,0.0120344,-3.48832,22.6735,10,JT_VTC_008,20
500,201.99,5000,0.0119149,-0.0006490754,0.0119325,-3.118169,22.6735,20,JT_VTC_008,20
500,201.99,5000,0.011995,-0.0007051208,0.01201574,-3.36423,23.14175,26,JT_VTC_008,20
500,201.99,5000,0.011902,-0.0006449854,0.0119194,-3.10191,23.32361,35,JT_VTC_008,20
500,201.99,5000,0.0118889,-0.0006529804,0.0119068,-3.14373,23.4738,45,JT_VTC_008,20
500,201.99,7500,0.01223,-0.00102944,0.0122732,-4.811432,23.014,0,JT_VTC_008,20
500,201.99,7500,0.012007,-0.000720637,0.0120286,-3.43467,22.9506,10,JT_VTC_008,20
500,201.99,7500,0.0119115,-0.0006546789,0.01192947,-3.145923,22.91105,20,JT_VTC_008,20
500,201.99,7500,0.0119841,-0.000692115,0.0120041,-3.30531,23.1338,26,JT_VTC_008,20
500,201.99,7500,0.0119108,-0.0006372627,0.0119279,-3.062561,23.32361,35,JT_VTC_008,20
500,201.99,7500,0.0118758,-0.000637291,0.0118929,-3.07171,23.5766,45,JT_VTC_008,20
500,201.99,10000,0.0122277,-0.00101933,0.0122701,-4.765288,22.7923,0,JT_VTC_008,20
500,201.99,10000,0.0119886,-0.0007057875,0.0120094,-3.3692,22.4123,10,JT_VTC_008,20
500,201.99,10000,0.0118956,-0.000639411,0.0119128,-3.07679,22.6498,20,JT_VTC_008,20
500,201.99,10000,0.0119663,-0.0006798659,0.0119856,-3.25178,23.14966,26,JT_VTC_008,20
500,201.99,10000,0.0118854,-0.000638137,0.0119026,-3.0733,23.3078,35,JT_VTC_008,20
500,201.99,10000,0.0118866,-0.0006324372,0.0119034,-3.04559,23.1338,45,JT_VTC_008,20
625,201.99,1250,0.0121953,-0.00100942,0.012237,-4.731628,22.8081,0,JT_VTC_008,25
625,201.99,1250,0.0119481,-0.000674705,0.0119672,-3.232025,23.0536,10,JT_VTC_008,25
625,201.99,1250,0.01184,-0.0006187462,0.0118561,-2.9915,22.7527,20,JT_VTC_008,25
625,201.99,1250,0.0119629,-0.000684126,0.0119825,-3.27302,23.1259,26,JT_VTC_008,25
625,201.99,1250,0.01187337,-0.0006114098,0.0118891,-2.947797,23.3315,35,JT_VTC_008,25
625,201.99,1250,0.0118262,-0.000621418,0.0118426,-3.00788,23.14175,45,JT_VTC_008,25
625,201.99,2500,0.0122138,-0.00099723,0.0122544,-4.667723,22.5944,0,JT_VTC_008,25
625,201.99,2500,0.0119217,-0.000685199,0.0119413,-3.28946,22.73688,10,JT_VTC_008,25
625,201.99,2500,0.0118502,-0.000620714,0.0118664,-2.99842,22.6973,20,JT_VTC_008,25
625,201.99,2500,0.0119285,-0.0006669527,0.0119472,-3.20021,23.118,26,JT_VTC_008,25
625,201.99,2500,0.0118704,-0.0006153693,0.0118864,-2.96759,23.29989,35,JT_VTC_008,25
625,201.99,2500,0.0118393,-0.0006159285,0.0118553,-2.97809,23.14175,45,JT_VTC_008,25
625,201.99,5000,0.0121637,-0.0009831991,0.0122033,-4.62122,22.8477,0,JT_VTC_008,25
625,201.99,5000,0.0119345,-0.0006714638,0.0119533,-3.22022,22.81605,10,JT_VTC_008,25
625,201.99,5000,0.0118453,-0.0006094893,0.011861,-2.9455,22.86355,20,JT_VTC_008,25
625,201.99,5000,0.0119089,-0.0006666296,0.0119276,-3.20391,23.1022,26,JT_VTC_008,25
625,201.99,5000,0.0118385,-0.0006023564,0.0118538,-2.91276,23.32361,35,JT_VTC_008,25
625,201.99,5000,0.0118335,-0.0006163343,0.0118495,-2.9815,23.1813,45,JT_VTC_008,25
625,201.99,7500,0.0121576,-0.0009724506,0.0121964,-4.573179,22.8715,0,JT_VTC_008,25
625,201.99,7500,0.011921,-0.000670474,0.0119398,-3.2191,22.6894,10,JT_VTC_008,25
625,201.99,7500,0.0118357,-0.0006027394,0.011851,-2.91531,22.81605,20,JT_VTC_008,25
625,201.99,7500,0.0119245,-0.0006461083,0.011942,-3.10143,23.17338,26,JT_VTC_008,25
625,201.99,7500,0.0118449,-0.000602815,0.0118602,-2.91341,23.27617,35,JT_VTC_008,25
625,201.99,7500,0.0118213,-0.000606473,0.0118369,-2.93688,23.1576,45,JT_VTC_008,25
625,201.99,10000,0.0121509,-0.0009363448,0.0121869,-4.406499,22.6973,0,JT_VTC_008,25
625,201.99,10000,0.0118967,-0.000652301,0.0119145,-3.13842,22.6656,10,JT_VTC_008,25
625,201.99,10000,0.0118366,-0.000591263,0.0118513,-2.859679,22.729,20,JT_VTC_008,25
625,201.99,10000,0.011902,-0.000645915,0.0119195,-3.10636,23.1576,26,JT_VTC_008,25
625,201.99,10000,0.0118367,-0.000596624,0.0118517,-2.885538,23.29989,35,JT_VTC_008,25
625,201.99,10000,0.011813,-0.0005965332,0.011828,-2.89087,23.1655,45,JT_VTC_008,25
750,201.99,1250,0.0121294,-0.000944353,0.0121662,-4.45185,22.824,0,JT_VTC_008,30
750,201.99,1250,0.0119354,-0.000672035,0.0119543,-3.2227,22.4677,10,JT_VTC_008,30
750,201.99,1250,0.0117988,-0.0005868312,0.0118134,-2.84735,22.6973,20,JT_VTC_008,30
750,201.99,1250,0.0119155,-0.000637042,0.0119326,-3.0603,23.0864,26,JT_VTC_008,30
750,201.99,1250,0.0118325,-0.0005931485,0.0118474,-2.86977,23.29989,35,JT_VTC_008,30
750,201.99,1250,0.011798,-0.000607979,0.0118137,-2.949967,23.3948,45,JT_VTC_008,30
750,201.99,2500,0.0121602,-0.000950906,0.0121973,-4.47134,22.9031,0,JT_VTC_008,30
750,201.99,2500,0.0118818,-0.0006500328,0.0118996,-3.13143,23.109,10,JT_VTC_008,30
750,201.99,2500,0.0118128,-0.0005851353,0.0118273,-2.83577,22.7131,20,JT_VTC_008,30
750,201.99,2500,0.01187771,-0.000637138,0.0118948,-3.070487,23.1338,26,JT_VTC_008,30
750,201.99,2500,0.0118117,-0.000578878,0.0118259,-2.80575,23.3869,35,JT_VTC_008,30
750,201.99,2500,0.0118225,-0.000592429,0.0118373,-2.868717,23.1655,45,JT_VTC_008,30
750,201.99,5000,0.0121147,-0.0009229252,0.0121498,-4.35652,22.8081,0,JT_VTC_008,30
750,201.99,5000,0.0118749,-0.000643053,0.0118923,-3.09966,22.5152,10,JT_VTC_008,30
750,201.99,5000,0.0117962,-0.0005808965,0.0118105,-2.81922,22.6656,20,JT_VTC_008,30
750,201.99,5000,0.0118832,-0.000637842,0.0119003,-3.07246,23.1259,26,JT_VTC_008,30
750,201.99,5000,0.0117894,-0.000573953,0.0118034,-2.787173,23.292,35,JT_VTC_008,30
750,201.99,5000,0.0118018,-0.0006028468,0.0118172,-2.92417,23.3315,45,JT_VTC_008,30
750,201.99,7500,0.0121056,-0.0009067515,0.0121395,-4.283642,22.9031,0,JT_VTC_008,30
750,201.99,7500,0.0118797,-0.0006260619,0.0118961,-3.01671,22.6419,10,JT_VTC_008,30
750,201.99,7500,0.0117899,-0.000565068,0.0118035,-2.74397,22.6498,20,JT_VTC_008,30
750,201.99,7500,0.0118698,-0.000620498,0.01188599,-2.99244,23.1576,26,JT_VTC_008,30
750,201.99,7500,0.0118027,-0.0005703334,0.0118164,-2.76652,23.3631,35,JT_VTC_008,30
750,201.99,7500,0.011793,-0.00058386,0.0118075,-2.83434,23.1813,45,JT_VTC_008,30
750,201.99,10000,0.0120948,-0.00089561,0.01212794,-4.234969,22.5944,0,JT_VTC_008,30
750,201.99,10000,0.01187316,-0.000619359,0.0118893,-2.98611,22.3965,10,JT_VTC_008,30
750,201.99,10000,0.0117833,-0.0005551546,0.0117964,-2.69742,22.6419,20,JT_VTC_008,30
750,201.99,10000,0.0118623,-0.0006151113,0.0118783,-2.96837,23.1338,26,JT_VTC_008,30
750,201.99,10000,0.0117801,-0.0005461488,0.0117928,-2.654442,23.17338,35,JT_VTC_008,30
750,201.99,10000,0.0117788,-0.0005729251,0.01179271,-2.7847,23.545,45,JT_VTC_008,30
875,201.99,0,0.0121037,-0.000898182,0.0121369,-4.244,22.9269,0,JT_VTC_008,35
875,201.99,1250,0.0119224,-0.0006839733,0.011942,-3.2834,22.6894,5,JT_VTC_008,35
875,201.99,1250,0.0117952,-0.0005818957,0.0118096,-2.82429,22.626,15,JT_VTC_008,35
875,201.99,1250,0.0117759,-0.0005476006,0.01178861,-2.66244,22.626,25,JT_VTC_008,35
875,201.99,1250,0.0117995,-0.0005830687,0.0118139,-2.82896,23.07059,30,JT_VTC_008,35
875,201.99,1250,0.0117543,-0.0005684171,0.011768,-2.76857,23.0864,40,JT_VTC_008,35
875,201.99,1250,0.0117846,-0.0005901796,0.01179941,-2.867,23.1971,50,JT_VTC_008,35
875,201.99,2500,0.0119238,-0.000684639,0.0119435,-3.28618,22.6023,5,JT_VTC_008,35
875,201.99,2500,0.0117842,-0.0005818215,0.0117985,-2.82658,22.6894,15,JT_VTC_008,35
875,201.99,2500,0.0117468,-0.000543537,0.0117593,-2.649257,22.7131,25,JT_VTC_008,35
875,201.99,2500,0.0118336,-0.000593737,0.0118485,-2.87234,23.0627,30,JT_VTC_008,35
875,201.99,2500,0.0117602,-0.000571761,0.0117741,-2.783432,23.1022,40,JT_VTC_008,35
875,201.99,2500,0.0117655,-0.0005800864,0.0117798,-2.822615,23.2129,50,JT_VTC_008,35
875,201.99,5000,0.0118874,-0.0006565402,0.0119055,-3.16123,22.76063,5,JT_VTC_008,35
875,201.99,5000,0.0118104,-0.0005872244,0.011825,-2.84646,22.81605,15,JT_VTC_008,35
875,201.99,5000,0.0117542,-0.0005444812,0.0117668,-2.65218,22.81605,25,JT_VTC_008,35
875,201.99,5000,0.0118022,-0.000581428,0.0118165,-2.82037,23.2604,30,JT_VTC_008,35
875,201.99,5000,0.0117716,-0.00056895,0.01178538,-2.767084,23.1259,40,JT_VTC_008,35
875,201.99,5000,0.0117682,-0.000575432,0.0117823,-2.79937,23.205,50,JT_VTC_008,35
875,201.99,7500,0.01189,-0.000662551,0.0119084,-3.18942,22.5944,5,JT_VTC_008,35
875,201.99,7500,0.0117687,-0.0005763506,0.01178281,-2.803715,22.8319,15,JT_VTC_008,35
875,201.99,7500,0.0117418,-0.0005401772,0.0117543,-2.634006,22.6973,25,JT_VTC_008,35
875,201.99,7500,0.0117915,-0.0005721879,0.0118053,-2.77813,23.1576,30,JT_VTC_008,35
875,201.99,7500,0.0117438,-0.000569937,0.0117576,-2.778439,23.1101,40,JT_VTC_008,35
875,201.99,7500,0.0117554,-0.000567609,0.0117691,-2.76438,23.1892,50,JT_VTC_008,35
875,201.99,10000,0.0118746,-0.000650076,0.01189242,-3.13353,22.76063,5,JT_VTC_008,35
875,201.99,10000,0.0117627,-0.0005568123,0.0117759,-2.71019,22.729,15,JT_VTC_008,35
875,201.99,10000,0.0117096,-0.0005287879,0.0117216,-2.58563,22.76063,25,JT_VTC_008,35
875,201.99,10000,0.0117974,-0.0005676874,0.011811,-2.75494,23.0785,30,JT_VTC_008,35
875,201.99,10000,0.0117373,-0.000558019,0.0117506,-2.72193,23.1101,40,JT_VTC_008,35
875,201.99,10000,0.0117404,-0.0005695194,0.0117542,-2.77721,23.29989,50,JT_VTC_008,35
1000,201.99,1250,0.0118734,-0.000656922,0.0118916,-3.16678,22.8952,5,JT_VTC_008,40
1000,201.99,1250,0.0118043,-0.000573556,0.0118182,-2.781743,22.6815,15,JT_VTC_008,40
1000,201.99,1250,0.0117284,-0.0005506527,0.0117413,-2.68808,22.6419,25,JT_VTC_008,40
1000,201.99,1250,0.01178515,-0.000589781,0.0117999,-2.864945,23.118,30,JT_VTC_008,40
1000,201.99,1250,0.0117878,-0.000580834,0.0118021,-2.820919,23.2524,40,JT_VTC_008,40
1000,201.99,1250,0.011752,-0.0005809054,0.0117663,-2.82986,23.17338,50,JT_VTC_008,40
1000,201.99,2500,0.0118902,-0.000666034,0.0119089,-3.20609,22.6181,5,JT_VTC_008,40
1000,201.99,2500,0.0117822,-0.0005768164,0.0117963,-2.80276,22.6656,15,JT_VTC_008,40
1000,201.99,2500,0.0117479,-0.0005548063,0.011761,-2.70383,22.7448,25,JT_VTC_008,40
1000,201.99,2500,0.01177822,-0.00058657,0.0117928,-2.85104,23.2683,30,JT_VTC_008,40
1000,201.99,2500,0.0117602,-0.0005711273,0.0117741,-2.780348,23.292,40,JT_VTC_008,40
1000,201.99,2500,0.0117665,-0.00058086,0.01178082,-2.82615,23.205,50,JT_VTC_008,40
1000,201.99,5000,0.0118788,-0.000651367,0.0118966,-3.13864,22.8873,5,JT_VTC_008,40
1000,201.99,5000,0.01176126,-0.000575169,0.0117753,-2.79974,22.7844,15,JT_VTC_008,40
1000,201.99,5000,0.0117249,-0.000544124,0.0117376,-2.65704,22.81605,25,JT_VTC_008,40
1000,201.99,5000,0.01178,-0.000569623,0.0117938,-2.76838,23.3157,30,JT_VTC_008,40
1000,201.99,5000,0.01174,-0.0005609601,0.0117534,-2.73562,23.2604,40,JT_VTC_008,40
1000,201.99,5000,0.0117623,-0.0005799826,0.0117766,-2.82289,23.37896,50,JT_VTC_008,40
1000,201.99,7500,0.0118565,-0.000652799,0.0118745,-3.15142,22.626,5,JT_VTC_008,40
1000,201.99,7500,0.011755,-0.0005684532,0.0117688,-2.76857,22.6102,15,JT_VTC_008,40
1000,201.99,7500,0.0117172,-0.000553111,0.0117302,-2.70264,22.8873,25,JT_VTC_008,40
1000,201.99,7500,0.0117588,-0.0005457105,0.0117715,-2.65711,23.37896,30,JT_VTC_008,40
1000,201.99,7500,0.0117388,-0.000567513,0.0117525,-2.76781,23.1022,40,JT_VTC_008,40
1000,201.99,7500,0.0117407,-0.0005739579,0.01175471,-2.798746,23.205,50,JT_VTC_008,40
1000,201.99,10000,0.0118499,-0.000632548,0.0118668,-3.05555,22.96647,5,JT_VTC_008,40
1000,201.99,10000,0.0117372,-0.0005521804,0.01175022,-2.6935,22.73688,15,JT_VTC_008,40
1000,201.99,10000,0.0116973,-0.0005264233,0.0117091,-2.57679,22.626,25,JT_VTC_008,40
1000,201.99,10000,0.0117545,-0.0005579687,0.0117677,-2.71772,23.2129,30,JT_VTC_008,40
1000,201.99,10000,0.0117169,-0.0005445627,0.0117296,-2.661002,23.2604,40,JT_VTC_008,40
1000,201.99,10000,0.0117179,-0.0005606897,0.0117313,-2.73945,23.2683,50,JT_VTC_008,40
1125,201.99,1250,0.0118736,-0.000658901,0.0118919,-3.17624,22.6815,5,JT_VTC_008,45
1125,201.99,1250,0.0117588,-0.0005819793,0.01177321,-2.83343,22.6498,15,JT_VTC_008,45
1125,201.99,1250,0.01174421,-0.0005592887,0.0117575,-2.726509,22.81605,25,JT_VTC_008,45
1125,201.99,1250,0.0117759,-0.000586689,0.0117906,-2.85217,23.1892,30,JT_VTC_008,45
1125,201.99,1250,0.01172321,-0.000585389,0.0117378,-2.85864,23.1576,40,JT_VTC_008,45
1125,201.99,1250,0.0117722,-0.0005949823,0.0117873,-2.89333,23.292,50,JT_VTC_008,45
1125,201.99,2500,0.0118459,-0.00065521,0.01186399,-3.165874,22.6102,5,JT_VTC_008,45
1125,201.99,2500,0.0117618,-0.0005867426,0.01177642,-2.85586,22.73688,15,JT_VTC_008,45
1125,201.99,2500,0.0117173,-0.000554333,0.0117304,-2.70858,22.6498,25,JT_VTC_008,45
1125,201.99,2500,0.0117747,-0.00058377,0.0117892,-2.8383,23.32361,30,JT_VTC_008,45
1125,201.99,2500,0.0117406,-0.0005762332,0.0117547,-2.80984,23.1101,40,JT_VTC_008,45
1125,201.99,2500,0.0117517,-0.0005838296,0.0117662,-2.844137,23.4185,50,JT_VTC_008,45
1125,201.99,5000,0.0118496,-0.000659293,0.0118679,-3.184563,22.6735,5,JT_VTC_008,45
1125,201.99,5000,0.0117685,-0.0005722231,0.0117824,-2.78372,22.6815,15,JT_VTC_008,45
1125,201.99,5000,0.0117144,-0.0005417026,0.0117269,-2.64761,22.6419,25,JT_VTC_008,45
1125,201.99,5000,0.0117719,-0.000579035,0.0117861,-2.816,23.3473,30,JT_VTC_008,45
1125,201.99,5000,0.0117454,-0.0005733712,0.0117594,-2.79478,23.1576,40,JT_VTC_008,45
1125,201.99,5000,0.0117171,-0.0005900582,0.011732,-2.8829,23.6241,50,JT_VTC_008,45
1125,201.99,7500,0.0118511,-0.0006325617,0.011868,-3.0553,22.6894,5,JT_VTC_008,45
1125,201.99,7500,0.0117427,-0.000560853,0.0117561,-2.73448,22.6419,15,JT_VTC_008,45
1125,201.99,7500,0.0117052,-0.0005345381,0.0117174,-2.61468,22.7131,25,JT_VTC_008,45
1125,201.99,7500,0.0117525,-0.0005678722,0.0117662,-2.76634,23.3078,30,JT_VTC_008,45
1125,201.99,7500,0.0117186,-0.0005663824,0.0117323,-2.76705,23.14175,40,JT_VTC_008,45
1125,201.99,7500,0.0117232,-0.000587584,0.0117379,-2.86934,23.6004,50,JT_VTC_008,45
1125,201.99,10000,0.0118258,-0.00062929,0.0118425,-3.04603,22.8319,5,JT_VTC_008,45
1125,201.99,10000,0.0117265,-0.000551023,0.0117394,-2.69033,22.5627,15,JT_VTC_008,45
1125,201.99,10000,0.0116922,-0.00052168,0.0117038,-2.554716,22.7131,25,JT_VTC_008,45
1125,201.99,10000,0.0117453,-0.000564311,0.0117589,-2.75069,23.3473,30,JT_VTC_008,45
1125,201.99,10000,0.01171172,-0.000554334,0.0117248,-2.70987,23.1338,40,JT_VTC_008,45
1125,201.99,10000,0.01172605,-0.000578843,0.0117403,-2.82605,23.6083,50,JT_VTC_008,45
1250,201.99,1250,0.0120438,-0.0008618019,0.0120746,-4.09287,22.86355,0,JT_VTC_008,50
1250,201.99,1250,0.0117713,-0.0006056212,0.0117868,-2.94522,22.9427,10,JT_VTC_008,50
1250,201.99,1250,0.0117164,-0.0005692366,0.0117302,-2.78151,22.9031,20,JT_VTC_008,50
1250,201.99,1250,0.0118393,-0.0006344992,0.0118563,-3.0677,23.27617,26,JT_VTC_008,50
1250,201.99,1250,0.0117708,-0.0005842504,0.0117853,-2.84158,23.2129,35,JT_VTC_008,50
1250,201.99,1250,0.0117409,-0.0005987858,0.0117562,-2.91955,23.1892,45,JT_VTC_008,50
1250,201.99,2500,0.0120245,-0.0008665713,0.0120557,-4.122008,22.824,0,JT_VTC_008,50
1250,201.99,2500,0.01176988,-0.0006086417,0.0117856,-2.96023,22.8477,10,JT_VTC_008,50
1250,201.99,2500,0.0117335,-0.000567675,0.01174722,-2.76985,22.9586,20,JT_VTC_008,50
1250,201.99,2500,0.0118054,-0.000620786,0.0118217,-3.01013,23.039,26,JT_VTC_008,50
1250,201.99,2500,0.0117595,-0.000584386,0.011774,-2.84497,23.3394,35,JT_VTC_008,50
1250,201.99,2500,0.0117343,-0.0006015671,0.0117497,-2.934736,23.17338,45,JT_VTC_008,50
1250,201.99,5000,0.0119862,-0.0008484452,0.0120162,-4.048926,22.91105,0,JT_VTC_008,50
1250,201.99,5000,0.01178834,-0.0005988512,0.0118035,-2.90814,22.73688,10,JT_VTC_008,50
1250,201.99,5000,0.011721,-0.0005590376,0.0117343,-2.73068,22.6735,20,JT_VTC_008,50
1250,201.99,5000,0.011798,-0.000626131,0.0118146,-3.0379,23.0469,26,JT_VTC_008,50
1250,201.99,5000,0.0117218,-0.000585969,0.0117364,-2.86182,23.32361,35,JT_VTC_008,50
1250,201.99,5000,0.0117386,-0.00060298,0.011754,-2.94055,23.17338,45,JT_VTC_008,50
1250,201.99,7500,0.0119949,-0.00082566,0.0120233,-3.937698,22.6973,0,JT_VTC_008,50
1250,201.99,7500,0.0117573,-0.0005880083,0.01177198,-2.86311,22.91105,10,JT_VTC_008,50
1250,201.99,7500,0.01171569,-0.0005495635,0.0117286,-2.68568,22.73688,20,JT_VTC_008,50
1250,201.99,7500,0.0117751,-0.000606657,0.0117907,-2.94929,23.0548,26,JT_VTC_008,50
1250,201.99,7500,0.0117292,-0.0005817123,0.0117436,-2.83928,23.3552,35,JT_VTC_008,50
1250,201.99,7500,0.0117311,-0.0005921803,0.01174601,-2.88982,23.1576,45,JT_VTC_008,50
1250,201.99,10000,0.0119702,-0.0008284884,0.0119989,-3.95926,22.8398,0,JT_VTC_008,50
1250,201.99,10000,0.0117334,-0.000578308,0.0117476,-2.82168,22.8873,10,JT_VTC_008,50
1250,201.99,10000,0.0116924,-0.000533065,0.0117045,-2.610349,22.86355,20,JT_VTC_008,50
1250,201.99,10000,0.0117893,-0.000602155,0.0118047,-2.92392,23.2208,26,JT_VTC_008,50
1250,201.99,10000,0.01171523,-0.0005521709,0.0117282,-2.69851,23.3869,35,JT_VTC_008,50
1250,201.99,10000,0.01172108,-0.0005790147,0.0117354,-2.82808,23.1655,45,JT_VTC_008,50
1375,201.99,1250,0.011999,-0.0008776358,0.0120311,-4.183291,22.8556,0,JT_VTC_008,55
1375,201.99,1250,0.01176071,-0.0006146015,0.0117768,-2.991492,22.73688,10,JT_VTC_008,55
1375,201.99,1250,0.0117375,-0.0005765377,0.0117516,-2.81208,22.9348,20,JT_VTC_008,55
1375,201.99,1250,0.0117971,-0.0006468009,0.0118148,-3.13822,23.0469,26,JT_VTC_008,55
1375,201.99,1250,0.0117305,-0.000607526,0.01174618,-2.964729,23.3552,35,JT_VTC_008,55
1375,201.99,1250,0.011766,-0.000624952,0.0117826,-3.04042,23.3869,45,JT_VTC_008,55
1375,201.99,2500,0.01199,-0.0008698079,0.0120215,-4.14921,22.76063,0,JT_VTC_008,55
1375,201.99,2500,0.011778,-0.0006055378,0.0117936,-2.94312,22.8952,10,JT_VTC_008,55
1375,201.99,2500,0.0117114,-0.0005849781,0.011726,-2.85952,22.8715,20,JT_VTC_008,55
1375,201.99,2500,0.0118064,-0.000640638,0.0118238,-3.10592,23.0627,26,JT_VTC_008,55
1375,201.99,2500,0.0117194,-0.000597165,0.0117346,-2.916993,23.3552,35,JT_VTC_008,55
1375,201.99,2500,0.0117471,-0.00062137,0.0117635,-3.02787,23.1813,45,JT_VTC_008,55
1375,201.99,5000,0.011999,-0.0008566129,0.0120296,-4.08343,22.729,0,JT_VTC_008,55
1375,201.99,5000,0.0117412,-0.0006099032,0.011757,-2.97359,22.8398,10,JT_VTC_008,55
1375,201.99,5000,0.0117098,-0.0005678013,0.0117235,-2.77607,22.81605,20,JT_VTC_008,55
1375,201.99,5000,0.0117967,-0.000641149,0.0118141,-3.11096,23.17338,26,JT_VTC_008,55
1375,201.99,5000,0.0117206,-0.0005870873,0.0117353,-2.86756,23.32361,35,JT_VTC_008,55
1375,201.99,5000,0.0117206,-0.000613112,0.0117367,-2.99444,23.14175,45,JT_VTC_008,55
1375,201.99,7500,0.0119787,-0.000834994,0.0120077,-3.98745,22.9031,0,JT_VTC_008,55
1375,201.99,7500,0.011731,-0.0005921822,0.011746,-2.889836,22.7844,10,JT_VTC_008,55
1375,201.99,7500,0.0116881,-0.000569902,0.0117019,-2.791492,22.7844,20,JT_VTC_008,55
1375,201.99,7500,0.0117905,-0.000621715,0.0118069,-3.018411,23.2524,26,JT_VTC_008,55
1375,201.99,7500,0.0117137,-0.00058532,0.0117283,-2.86062,23.3473,35,JT_VTC_008,55
1375,201.99,7500,0.0117234,-0.00060281,0.0117389,-2.94351,23.1655,45,JT_VTC_008,55
1375,201.99,10000,0.0119611,-0.0008128485,0.0119887,-3.887722,22.76063,0,JT_VTC_008,55
1375,201.99,10000,0.01171391,-0.000573371,0.0117279,-2.80227,22.7765,10,JT_VTC_008,55
1375,201.99,10000,0.0116909,-0.000544899,0.0117036,-2.66855,22.729,20,JT_VTC_008,55
1375,201.99,10000,0.0117706,-0.0006045696,0.0117861,-2.94028,23.1971,26,JT_VTC_008,55
1375,201.99,10000,0.0117108,-0.000569034,0.0117246,-2.78184,23.3552,35,JT_VTC_008,55
1375,201.99,10000,0.0117098,-0.0005917818,0.01172477,-2.89311,23.1892,45,JT_VTC_008,55
1500,201.99,1250,0.0119746,-0.0008693351,0.0120061,-4.15228,22.6023,0,JT_VTC_008,60
1500,201.99,1250,0.0117733,-0.0006158453,0.0117894,-2.99432,22.7131,10,JT_VTC_008,60
1500,201.99,1250,0.0116946,-0.000576472,0.0117088,-2.82204,22.9823,20,JT_VTC_008,60
1500,201.99,1250,0.0117824,-0.0006391861,0.0117997,-3.105214,23.2524,26,JT_VTC_008,60
1500,201.99,1250,0.0116975,-0.0005944355,0.0117126,-2.9091,23.3631,35,JT_VTC_008,60
1500,201.99,1250,0.0117158,-0.0006093736,0.01173168,-2.97743,23.205,45,JT_VTC_008,60
1500,201.99,2500,0.0119941,-0.0008664797,0.0120253,-4.132,22.7923,0,JT_VTC_008,60
1500,201.99,2500,0.0117644,-0.00061355,0.0117803,-2.98546,22.9744,10,JT_VTC_008,60
1500,201.99,2500,0.011686,-0.0005638168,0.01169955,-2.76223,22.7448,20,JT_VTC_008,60
1500,201.99,2500,0.0117834,-0.0006321062,0.0118003,-3.070625,23.3157,26,JT_VTC_008,60
1500,201.99,2500,0.0117042,-0.000595671,0.0117193,-2.91349,23.3473,35,JT_VTC_008,60
1500,201.99,2500,0.0117374,-0.0006097873,0.0117533,-2.97398,23.1892,45,JT_VTC_008,60
1500,201.99,5000,0.0119791,-0.000854076,0.0120095,-4.078141,22.8002,0,JT_VTC_008,60
1500,201.99,5000,0.0117259,-0.000608773,0.0117417,-2.97196,22.6419,10,JT_VTC_008,60
1500,201.99,5000,0.0117067,-0.000563869,0.0117203,-2.75759,22.63396,20,JT_VTC_008,60
1500,201.99,5000,0.0117922,-0.000636124,0.0118093,-3.08781,23.0548,26,JT_VTC_008,60
1500,201.99,5000,0.0117104,-0.0005853069,0.0117251,-2.86136,23.3552,35,JT_VTC_008,60
1500,201.99,5000,0.0117026,-0.000602772,0.0117181,-2.94856,23.1655,45,JT_VTC_008,60
1500,201.99,7500,0.0119664,-0.0008299921,0.0119951,-3.9677,22.76063,0,JT_VTC_008,60
1500,201.99,7500,0.0117358,-0.0006040972,0.0117514,-2.94668,22.76063,10,JT_VTC_008,60
1500,201.99,7500,0.0116811,-0.000549119,0.011694,-2.69144,23.014,20,JT_VTC_008,60
1500,201.99,7500,0.0117667,-0.000629305,0.01178348,-3.06138,23.0548,26,JT_VTC_008,60
1500,201.99,7500,0.0117015,-0.0005761869,0.0117157,-2.81899,23.3631,35,JT_VTC_008,60
1500,201.99,7500,0.0116943,-0.000581129,0.0117087,-2.84489,23.17338,45,JT_VTC_008,60
1500,201.99,10000,0.0119289,-0.0008093503,0.0119564,-3.881434,22.6973,0,JT_VTC_008,60
1500,201.99,10000,0.01170689,-0.000586649,0.0117216,-2.86877,22.6973,10,JT_VTC_008,60
1500,201.99,10000,0.0116704,-0.000540406,0.0116829,-2.65122,22.7527,20,JT_VTC_008,60
1500,201.99,10000,0.0117578,-0.000605772,0.0117734,-2.949315,23.27617,26,JT_VTC_008,60
1500,201.99,10000,0.0116721,-0.000568809,0.011686,-2.78995,23.205,35,JT_VTC_008,60
1500,201.99,10000,0.0116692,-0.0005780277,0.0116835,-2.83581,23.17338,45,JT_VTC_008,60
1625,201.99,1250,0.0119569,-0.0008260371,0.01198535,-3.95199,22.9586,0,JT_VTC_008,65
1625,201.99,1250,0.0117296,-0.000588083,0.0117444,-2.870204,22.7131,10,JT_VTC_008,65
1625,201.99,1250,0.011712,-0.0005702768,0.0117259,-2.78761,22.6102,20,JT_VTC_008,65
1625,201.99,1250,0.0117845,-0.0006315985,0.01180144,-3.06787,23.27617,26,JT_VTC_008,65
1625,201.99,1250,0.0117162,-0.0005937006,0.0117312,-2.9009,23.2604,35,JT_VTC_008,65
1625,201.99,1250,0.0117563,-0.000618276,0.0117725,-3.010481,23.205,45,JT_VTC_008,65
1625,201.99,2500,0.0119567,-0.000829473,0.0119854,-3.96842,22.626,0,JT_VTC_008,65
1625,201.99,2500,0.0117608,-0.000593118,0.0117757,-2.88708,22.8873,10,JT_VTC_008,65
1625,201.99,2500,0.01169542,-0.0005587425,0.01170876,-2.7352,22.5627,20,JT_VTC_008,65
1625,201.99,2500,0.0117997,-0.0006226129,0.0118161,-3.02043,23.2366,26,JT_VTC_008,65
1625,201.99,2500,0.0116973,-0.0005946371,0.0117124,-2.91014,23.2287,35,JT_VTC_008,65
1625,201.99,2500,0.0117275,-0.000615603,0.0117436,-3.00483,23.1971,45,JT_VTC_008,65
1625,201.99,5000,0.0119608,-0.000815643,0.0119886,-3.901124,22.8398,0,JT_VTC_008,65
1625,201.99,5000,0.01171577,-0.00058812,0.0117305,-2.87378,22.7685,10,JT_VTC_008,65
1625,201.99,5000,0.01168845,-0.0005640468,0.0117021,-2.76277,22.6498,20,JT_VTC_008,65
1625,201.99,5000,0.0118037,-0.0006316823,0.0118206,-3.06329,23.2604,26,JT_VTC_008,65
1625,201.99,5000,0.0117198,-0.000591766,0.0117347,-2.890577,23.1892,35,JT_VTC_008,65
1625,201.99,5000,0.0117157,-0.0006032571,0.0117312,-2.947645,23.205,45,JT_VTC_008,65
1625,201.99,7500,0.0119441,-0.000798282,0.0119708,-3.823662,22.9031,0,JT_VTC_008,65
1625,201.99,7500,0.0117126,-0.000586579,0.0117272,-2.86705,22.8794,10,JT_VTC_008,65
1625,201.99,7500,0.0116981,-0.0005622179,0.0117116,-2.75156,22.9744,20,JT_VTC_008,65
1625,201.99,7500,0.0117723,-0.000611695,0.0117882,-2.97443,23.039,26,JT_VTC_008,65
1625,201.99,7500,0.0116723,-0.0005793972,0.0116867,-2.84175,23.2524,35,JT_VTC_008,65
1625,201.99,7500,0.0117002,-0.000614047,0.0117163,-3.00422,23.1971,45,JT_VTC_008,65
1625,201.99,10000,0.0119223,-0.0007853667,0.0119481,-3.768854,22.8715,0,JT_VTC_008,65
1625,201.99,10000,0.0117028,-0.0005590526,0.0117161,-2.734999,22.7923,10,JT_VTC_008,65
1625,201.99,10000,0.0116684,-0.000528759,0.0116804,-2.59461,22.3727,20,JT_VTC_008,65
1625,201.99,10000,0.011756,-0.0005997076,0.0117713,-2.92028,23.2841,26,JT_VTC_008,65
1625,201.99,10000,0.0116735,-0.0005651216,0.0116872,-2.77155,23.1892,35,JT_VTC_008,65
1625,201.99,10000,0.0116928,-0.0006001501,0.0117082,-2.93821,23.1892,45,JT_VTC_008,65
1750,201.99,0,0.0119916,-0.0008180004,0.01201948,-3.902351,22.7448,0,JT_VTC_008,70
1750,201.99,1250,0.0118345,-0.000660723,0.0118529,-3.19553,22.8398,5,JT_VTC_008,70
1750,201.99,1250,0.0117298,-0.000603749,0.0117453,-2.94649,22.9031,15,JT_VTC_008,70
1750,201.99,1250,0.0117207,-0.0005842663,0.0117352,-2.85379,22.6498,25,JT_VTC_008,70
1750,201.99,1250,0.0117903,-0.000632616,0.0118073,-3.07129,23.3078,30,JT_VTC_008,70
1750,201.99,1250,0.0117186,-0.0006270574,0.0117353,-3.06296,23.1576,40,JT_VTC_008,70
1750,201.99,1250,0.0117544,-0.0006371405,0.0117716,-3.10265,23.1655,50,JT_VTC_008,70
1750,201.99,2500,0.0118359,-0.0006594704,0.0118543,-3.1891,22.7685,5,JT_VTC_008,70
1750,201.99,2500,0.0117612,-0.000602196,0.0117766,-2.931092,22.8081,15,JT_VTC_008,70
1750,201.99,2500,0.01170709,-0.0005732623,0.0117211,-2.80337,22.6815,25,JT_VTC_008,70
1750,201.99,2500,0.0117905,-0.000625745,0.01180711,-3.03795,23.3631,30,JT_VTC_008,70
1750,201.99,2500,0.0117172,-0.000626212,0.0117339,-3.05919,23.14175,40,JT_VTC_008,70
1750,201.99,2500,0.0117252,-0.000647327,0.011743,-3.16,23.2287,50,JT_VTC_008,70
1750,201.99,5000,0.0118317,-0.000659697,0.0118501,-3.19132,22.73688,5,JT_VTC_008,70
1750,201.99,5000,0.0117238,-0.0006014049,0.0117392,-2.936575,22.7844,15,JT_VTC_008,70
1750,201.99,5000,0.0117182,-0.0005869797,0.0117329,-2.86763,22.8477,25,JT_VTC_008,70
1750,201.99,5000,0.011748,-0.0006270066,0.0117647,-3.05505,23.1892,30,JT_VTC_008,70
1750,201.99,5000,0.01172,-0.00062035,0.0117364,-3.029894,23.14175,40,JT_VTC_008,70
1750,201.99,5000,0.0117127,-0.0006411801,0.01173024,-3.133374,23.2208,50,JT_VTC_008,70
1750,201.99,7500,0.0118066,-0.000648758,0.0118244,-3.14517,22.8873,5,JT_VTC_008,70
1750,201.99,7500,0.0117292,-0.000583695,0.0117437,-2.84893,22.6894,15,JT_VTC_008,70
1750,201.99,7500,0.011708,-0.0005833156,0.01172248,-2.85224,22.6023,25,JT_VTC_008,70
1750,201.99,7500,0.0117541,-0.000631308,0.0117711,-3.074369,23.32361,30,JT_VTC_008,70
1750,201.99,7500,0.0116808,-0.0006028136,0.0116964,-2.954248,23.14175,40,JT_VTC_008,70
1750,201.99,7500,0.0117124,-0.0006313473,0.0117294,-3.0855,23.205,50,JT_VTC_008,70
1750,201.99,10000,0.0117956,-0.000628711,0.0118123,-3.05102,22.7052,5,JT_VTC_008,70
1750,201.99,10000,0.0117063,-0.0005912489,0.0117212,-2.89137,22.6894,15,JT_VTC_008,70
1750,201.99,10000,0.0116762,-0.0005667655,0.01169,-2.77897,22.6894,25,JT_VTC_008,70
1750,201.99,10000,0.0117348,-0.000615747,0.0117509,-3.00367,23.3394,30,JT_VTC_008,70
1750,201.99,10000,0.0116927,-0.000600379,0.0117081,-2.93936,23.14966,40,JT_VTC_008,70
1750,201.99,10000,0.011707,-0.000630279,0.0117239,-3.081708,23.2208,50,JT_VTC_008,70
1875,201.99,1250,0.0120142,-0.000844998,0.0120439,-4.02318,22.436,0,JT_VTC_008,75
1875,201.99,1250,0.0117903,-0.0006661566,0.0118091,-3.23379,22.8319,10,JT_VTC_008,75
1875,201.99,1250,0.01174099,-0.0006438455,0.01175863,-3.13881,22.6419,20,JT_VTC_008,75
1875,201.99,1250,0.0118406,-0.0007204213,0.0118625,-3.481764,22.9994,26,JT_VTC_008,75
1875,201.99,1250,0.0117468,-0.0006797859,0.0117665,-3.311998,23.2841,35,JT_VTC_008,75
1875,201.99,1250,0.0117962,-0.000692619,0.0118165,-3.3603,23.1971,45,JT_VTC_008,75
1875,201.99,2500,0.01199014,-0.0008474475,0.0120201,-4.042868,22.45187,0,JT_VTC_008,75
1875,201.99,2500,0.0118023,-0.000652066,0.0118203,-3.162316,22.9031,10,JT_VTC_008,75
1875,201.99,2500,0.0117505,-0.000635727,0.0117677,-3.0968,22.1352,20,JT_VTC_008,75
1875,201.99,2500,0.0118517,-0.000699335,0.0118724,-3.37693,23.14175,26,JT_VTC_008,75
1875,201.99,2500,0.0117546,-0.0006716124,0.0117738,-3.2701,23.27617,35,JT_VTC_008,75
1875,201.99,2500,0.0117585,-0.0006969263,0.0117792,-3.39194,23.3157,45,JT_VTC_008,75
1875,201.99,5000,0.0119926,-0.0008397645,0.012022,-4.00552,22.5152,0,JT_VTC_008,75
1875,201.99,5000,0.0117999,-0.000665131,0.0118186,-3.22621,22.8794,10,JT_VTC_008,75
1875,201.99,5000,0.0117459,-0.000634582,0.011763,-3.09244,22.6894,20,JT_VTC_008,75
1875,201.99,5000,0.011819,-0.000709416,0.0118403,-3.43496,23.01524,26,JT_VTC_008,75
1875,201.99,5000,0.0117532,-0.000681391,0.011773,-3.317997,23.1101,35,JT_VTC_008,75
1875,201.99,5000,0.01174172,-0.0006780582,0.0117613,-3.305033,23.1892,45,JT_VTC_008,75
1875,201.99,7500,0.0119886,-0.000834264,0.01201758,-3.98069,22.5627,0,JT_VTC_008,75
1875,201.99,7500,0.0117718,-0.0006493772,0.0117897,-3.15744,22.8319,10,JT_VTC_008,75
1875,201.99,7500,0.0117389,-0.0006255478,0.0117556,-3.050307,22.91105,20,JT_VTC_008,75
1875,201.99,7500,0.0118184,-0.000695248,0.0118388,-3.36669,23.01524,26,JT_VTC_008,75
1875,201.99,7500,0.0117208,-0.0006602377,0.0117394,-3.22408,23.32361,35,JT_VTC_008,75
1875,201.99,7500,0.011741,-0.000679638,0.0117606,-3.31292,23.2129,45,JT_VTC_008,75
1875,201.99,10000,0.0119506,-0.0008352546,0.0119797,-3.99804,22.539,0,JT_VTC_008,75
1875,201.99,10000,0.011764,-0.0006570297,0.0117823,-3.19671,22.7448,10,JT_VTC_008,75
1875,201.99,10000,0.0117133,-0.0006197485,0.0117296,-3.02869,22.3569,20,JT_VTC_008,75
1875,201.99,10000,0.0117898,-0.0006899686,0.01180994,-3.349281,23.1022,26,JT_VTC_008,75
1875,201.99,10000,0.0117115,-0.0006649475,0.0117304,-3.2496,23.4027,35,JT_VTC_008,75
1875,201.99,10000,0.0117313,-0.0006720094,0.0117505,-3.27853,23.50547,45,JT_VTC_008,75
2000,201.99,1250,0.0120186,-0.000898278,0.0120521,-4.274387,22.5706,0,JT_VTC_008,80
2000,201.99,1250,0.0118175,-0.0007112589,0.0118389,-3.444308,22.7448,10,JT_VTC_008,80
2000,201.99,1250,0.011773,-0.0006967756,0.0117936,-3.38706,22.9744,20,JT_VTC_008,80
2000,201.99,1250,0.0118637,-0.0007570498,0.0118878,-3.65122,23.118,26,JT_VTC_008,80
2000,201.99,1250,0.0117851,-0.000719483,0.011807,-3.4936,23.118,35,JT_VTC_008,80
2000,201.99,1250,0.0117735,-0.000735634,0.0117964,-3.575324,23.2129,45,JT_VTC_008,80
2000,201.99,2500,0.0120134,-0.000899369,0.012047,-4.28139,22.4598,0,JT_VTC_008,80
2000,201.99,2500,0.0118135,-0.0007245886,0.01183572,-3.50987,22.6656,10,JT_VTC_008,80
2000,201.99,2500,0.011776,-0.000688814,0.0117961,-3.347587,22.3727,20,JT_VTC_008,80
2000,201.99,2500,0.0118616,-0.0007640857,0.0118862,-3.685722,23.039,26,JT_VTC_008,80
2000,201.99,2500,0.01180094,-0.000727806,0.0118234,-3.52916,23.27617,35,JT_VTC_008,80
2000,201.99,2500,0.01176442,-0.0007387768,0.0117876,-3.59332,23.1655,45,JT_VTC_008,80
2000,201.99,5000,0.0120109,-0.000890799,0.0120439,-4.24163,22.53104,0,JT_VTC_008,80
2000,201.99,5000,0.0118347,-0.0007112217,0.01185607,-3.43912,22.73688,10,JT_VTC_008,80
2000,201.99,5000,0.011766,-0.0006820093,0.0117857,-3.317417,22.8398,20,JT_VTC_008,80
2000,201.99,5000,0.0118279,-0.0007672914,0.0118527,-3.711664,23.3157,26,JT_VTC_008,80
2000,201.99,5000,0.0117471,-0.000716706,0.011769,-3.49136,23.3711,35,JT_VTC_008,80
2000,201.99,5000,0.0117744,-0.0007461434,0.01179804,-3.62598,23.292,45,JT_VTC_008,80
2000,201.99,7500,0.0120065,-0.000878033,0.0120386,-4.18258,22.444,0,JT_VTC_008,80
2000,201.99,7500,0.0118041,-0.000712663,0.01182561,-3.454986,22.6735,10,JT_VTC_008,80
2000,201.99,7500,0.0117453,-0.000686678,0.0117654,-3.34594,22.824,20,JT_VTC_008,80
2000,201.99,7500,0.01182155,-0.0007590673,0.0118459,-3.67395,23.118,26,JT_VTC_008,80
2000,201.99,7500,0.0117405,-0.00071981,0.0117626,-3.508405,23.29989,35,JT_VTC_008,80
2000,201.99,7500,0.0117665,-0.000734746,0.0117895,-3.57312,23.4738,45,JT_VTC_008,80
2000,201.99,10000,0.0119613,-0.0008678102,0.0119927,-4.14964,22.91105,0,JT_VTC_008,80
2000,201.99,10000,0.0117798,-0.0007062813,0.0118009,-3.43119,22.6656,10,JT_VTC_008,80
2000,201.99,10000,0.0117287,-0.000671404,0.0117479,-3.27631,22.8319,20,JT_VTC_008,80
2000,201.99,10000,0.011811,-0.0007588884,0.0118353,-3.67636,23.2683,26,JT_VTC_008,80
2000,201.99,10000,0.0117189,-0.000725429,0.0117413,-3.542225,23.29989,35,JT_VTC_008,80